participant,task,trial,target_present,response,correct,rt_s,fix_count,mean_fix_dur,fix_path_length_deg,fix_dispersion_deg2,fix_center_dist_deg,ecc_deg
kh1,dt1,1,0,0,1,4.742396237599678,24,265.9166666666667,258.20953564135374,577.1887701499054,9.980664501331772,NA
kh1,dt1,2,0,0,1,5.194471656272981,12,279.9166666666667,91.00174476140836,156.93920306656187,6.771507997916397,NA
kh1,dt1,3,0,0,1,4.006386910104993,14,237.57142857142856,124.08594951988644,247.1945420465578,8.306763676663948,NA
kh1,dt1,4,1,1,1,2.334584603377152,11,214.54545454545453,66.19866984908987,192.49068560351463,5.968586554310589,NA
kh1,dt1,5,1,1,1,2.6339726501219047,10,265.2,72.88362640824494,219.71446503126623,8.003036527747302,NA
kh1,dt1,6,1,1,1,1.7032163243666218,9,207.22222222222223,39.36865889957789,83.92953849854129,5.944256421203296,NA
kh1,dt1,7,1,1,1,2.532393643468822,10,255.7,78.66311476326933,254.65233510465345,9.270265520176777,NA
kh1,dt1,8,1,0,0,4.210956904428713,18,183.33333333333337,189.78436115286223,373.649579743934,9.429328122843776,NA
kh1,dt1,9,1,1,1,1.183221319207405,6,228.33333333333337,36.089745973931954,44.160153218644055,5.953708220460183,NA
kh1,dt1,10,0,0,1,5.6107221810725605,17,195.64705882352945,157.76682833650037,350.79220869910125,8.488141190557286,NA
kh1,dt1,11,1,1,1,3.0333542115376986,11,270.45454545454544,75.1253091738741,152.75910693859947,7.41416740684323,NA
kh1,dt1,12,0,0,1,4.566825614086156,18,175.27777777777777,143.0800507144421,410.1401286362136,9.18858015464312,NA
kh1,dt1,13,1,1,1,1.284003028761617,5,300.4,32.78085129119222,39.30240127314337,5.938053051651171,NA
kh1,dt1,14,1,1,1,2.483151232155251,12,198.25,95.54457450250248,223.82094563196867,6.8774706986501615,NA
kh1,dt1,15,1,1,1,1.4609748244120055,8,200.375,54.401572496838234,69.84930619398843,8.587257848928273,NA
kh1,dt1,16,0,0,1,4.196727867680238,14,237.3571428571429,96.6249473605232,246.8702750896755,8.268854845965741,NA
kh1,dt1,17,1,1,1,2.5650182556282743,10,258.2,64.16002415376202,180.2554394835749,8.745089619086347,NA
kh1,dt1,18,1,1,1,2.7330058811685376,10,268.4,98.74490147361956,290.4387869223943,8.13553118451736,NA
kh1,dt1,19,0,0,1,5.3620644732609435,13,256.46153846153845,121.20976425186652,293.1102011683544,6.6440114978686795,NA
kh1,dt1,20,0,0,1,4.141725745726944,13,244.15384615384616,148.196815719108,468.4529829249717,10.412624293528,NA
kh1,dt1,21,0,0,1,5.2804304095889165,13,257.2307692307692,111.64567808538578,219.14795379581344,7.256157573481947,NA
kh1,dt1,22,0,0,1,5.8841253966575096,14,230.28571428571428,152.2646000016235,405.53178640384647,9.44272351490634,NA
kh1,dt1,23,0,0,1,4.1501068941306585,16,198.1875,124.3350356919198,362.96506586968474,8.995066131458758,NA
kh1,dt1,24,0,0,1,4.29056771649266,13,251.46153846153845,117.36540797947588,371.3578714439817,8.096436695892807,NA
kh1,dt1,25,0,0,1,4.197331458277404,13,252.53846153846155,147.1138667204979,426.7268715848829,9.976430748432652,NA
kh1,dt1,26,0,0,1,4.221885535102956,15,218.33333333333337,120.50478556777124,300.1927730682319,8.762784686372838,NA
kh1,dt1,27,0,0,1,4.329198083528354,16,200.4375,164.85344497473574,530.4421689621132,9.780216632850294,NA
kh1,dt1,28,1,1,1,3.196092703778959,13,239.23076923076923,91.28540955207288,354.1844393669139,11.28089691323403,NA
kh1,dt1,29,1,1,1,3.0352241477194184,13,221.3846153846154,107.08926848174988,340.3316749147126,8.016825004564788,NA
kh1,dt1,30,0,0,1,5.217554872130677,19,220.52631578947367,136.0202263891416,316.6108142234441,6.951666416576327,NA
kh1,dt1,31,0,0,1,4.206562525955633,13,254.15384615384616,131.86736812941294,447.984586754359,10.64022231728017,NA
kh1,dt1,32,1,1,1,1.814932637923448,5,409.2,34.230866311969315,41.96119748831111,8.007950057786383,NA
kh1,dt1,33,1,1,1,4.2601802579793,12,269.1666666666667,135.46596585753664,483.5505133757646,9.848069836937338,NA
kh1,dt1,34,1,1,1,2.4368804094174266,9,265.3333333333333,87.53852275395636,195.7748029383177,7.661646568208898,NA
kh1,dt1,35,1,1,1,2.4853070347598987,10,248.7,70.83691913697187,148.81916973592772,7.002339282431206,NA
kh1,dt1,36,0,0,1,4.888358495267312,16,196.9375,141.8114031597067,502.4286359347272,8.058656944145905,NA
kh1,dt1,37,0,0,1,4.183421283480129,15,213.13333333333333,105.18924294397934,350.352462108744,9.35313051527556,NA
kh1,dt1,38,1,1,1,2.4651038164447527,14,195.42857142857144,84.01480075581718,238.91815104520992,7.414519486188266,NA
kh1,dt1,39,1,1,1,1.3757775282256262,6,270.1666666666667,15.600556602227869,6.780911487309386,3.2877336533426917,NA
kh1,dt1,40,1,1,1,3.000034417748793,9,350.77777777777777,37.140829208459365,71.79956437211544,9.097814701759718,NA
kh1,dt1,41,1,1,1,0.9798610660736812,4,299.5,23.31934941541667,1.9399957565563588,3.5372895218119575,NA
kh1,dt1,42,0,0,1,4.163698206977642,11,316.6363636363636,83.09408560490166,285.701748080159,10.340942517213366,NA
kh1,dt1,43,0,0,1,4.157641536589836,14,233.21428571428572,104.77080048138744,270.4042318846015,8.110619686618568,NA
kh1,dt1,44,0,0,1,4.887556078174384,14,217.07142857142856,134.94004546086572,359.14619967679556,8.77058862748467,NA
kh1,dt1,45,1,1,1,1.4330375682520753,9,166.44444444444446,56.16810219089747,137.20527489496564,9.070748149019837,NA
kh1,dt1,46,1,1,1,2.874754097987534,13,207.76923076923077,118.0372162021439,358.6517956482794,9.108675012190732,NA
kh1,dt1,47,0,0,1,4.237307815275017,17,187.58823529411765,139.55835531509567,290.8349346555591,8.85568338765953,NA
kh1,dt1,48,1,1,1,2.483868031543352,9,283.77777777777777,54.072654295565954,154.61355938538722,7.70461741765482,NA
kh1,dt1,49,1,1,1,1.6855230416867926,8,224.625,43.97008243456953,94.31566059627411,5.838581427778202,NA
kh1,dt1,50,1,1,1,1.982054984201568,6,340.6666666666667,80.2239087561027,98.31752293067284,7.599874597715849,NA
kh1,dt1,51,0,0,1,4.6876233776720255,15,220.46666666666667,102.91332412291868,245.6826353537916,7.190711719285451,NA
kh1,dt1,52,1,1,1,2.126066807978532,10,215.8,51.26164817992646,97.43804801049478,5.255725397592129,NA
kh1,dt1,53,0,0,1,4.827119934190705,14,238.21428571428572,116.72309485497004,293.4880043664482,10.858599500229454,NA
kh1,dt1,54,0,0,1,4.636841838783766,14,225.71428571428572,124.26004758810755,306.9617786856763,9.837896124580432,NA
kh1,dt1,55,1,1,1,1.4399828423256622,7,219,31.41482828844567,45.77827780072045,5.952430742489099,NA
kh1,dt1,56,1,1,1,2.2006145132536403,10,226,57.214481687635384,150.29545012178224,6.9908171264126695,NA
kh1,dt1,57,0,0,1,4.190956494828242,15,211.73333333333332,119.03459233471106,259.6422020324742,8.26716688543172,NA
kh1,dt1,58,0,0,1,5.124349333887949,15,227.8,115.54844571396086,249.94556492789073,8.169388215131436,NA
kh1,dt1,59,0,0,1,4.223004823035808,12,278.9166666666667,124.40416466540135,298.0160148461931,9.773021438952489,NA
kh1,dt1,60,0,0,1,4.292780976827089,16,196.3125,130.18053413380082,437.52545172707414,9.30726826920616,NA
kh1,dt1,61,0,0,1,4.2021988674569,15,212.73333333333332,131.2894753605123,310.7002473880112,6.88702526801553,NA
kh1,dt1,62,1,1,1,1.3728591307153692,8,181.375,47.11447993295469,88.59661757294447,5.593191845117894,NA
kh1,dt1,63,0,0,1,4.197332596053457,16,196.4375,125.97807101391366,408.2497321491773,8.046855086814684,NA
kh1,dt1,64,1,1,1,1.3713578342194523,5,318,32.23242245715701,45.54356051533751,6.640779920695455,NA
kh1,dt1,65,1,1,1,2.3800641023453863,12,196.16666666666663,71.37411239680704,230.0152739019917,9.366550657104774,NA
kh1,dt1,66,0,0,1,4.462440849828454,14,231,137.55836255703076,307.55789390306927,8.453355905424441,NA
kh1,dt1,67,0,0,1,4.86515012396103,20,203.6,187.39817215194572,568.7111407309819,10.905481777718505,NA
kh1,dt1,68,0,0,1,4.438993260948337,13,247.53846153846155,123.66678026909084,344.76538067922695,8.790985480090324,NA
kh1,dt1,69,1,1,1,2.771493172769624,10,275.3,63.80789997413406,115.24203832909556,8.490835046450844,NA
kh1,dt1,70,1,1,1,1.2741211527500127,7,205.1428571428571,36.8565966649133,53.238178124740024,4.250594335576044,NA
kh1,dt1,71,0,0,1,4.266720767954212,14,232.21428571428572,139.222352609838,364.72112689315,9.214755223791393,NA
kh1,dt1,72,0,0,1,4.176053894211691,15,216.53333333333333,120.78805426982652,367.8764307506506,7.217279610188581,NA
kh1,dt1,73,1,1,1,2.4423582358540443,9,273.6666666666667,63.25198162474247,164.71046380019308,6.662557507034118,NA
kh1,dt1,74,0,0,1,4.22720919278072,14,231.07142857142856,124.25693880758406,469.8863145287367,10.62106957971212,NA
kh1,dt1,75,0,0,1,4.457814080443313,13,248.6153846153846,155.134339548736,428.35436747434386,9.21220560747998,NA
kh1,dt1,76,1,1,1,1.2343450444695918,6,236.66666666666663,29.79374916374052,39.4175996943548,5.592332427621897,NA
kh1,dt1,77,0,0,1,4.1465752349222385,13,248.30769230769232,121.95567443102908,397.5412421903689,10.127355874659305,NA
kh1,dt1,78,0,0,1,4.208364195529612,14,235.92857142857144,100.12414836882444,232.7237132119673,7.225333787933984,NA
kh1,dt1,79,1,1,1,2.1133714943671293,10,211,66.05975394444243,177.63118855155184,6.677322258087217,NA
kh1,dt1,80,0,0,1,4.270007236260426,15,208.46666666666667,157.38652522275729,409.1535301041099,10.353575205011564,NA
kh1,dt1,81,1,1,1,1.044841775068562,4,323.25,25.50727530938731,30.859357310545377,4.151857247382351,NA
kh1,dt1,82,1,1,1,1.2428345661146525,7,207.42857142857144,27.659101117425312,55.544571548228305,5.618342873899245,NA
kh1,dt1,83,0,0,1,4.229065760086087,16,210.75,110.2036521212775,264.3198356970336,7.614486264804876,NA
kh1,dt1,84,0,0,1,4.243899525205961,13,249.6153846153846,108.51712875505112,404.2969066597715,9.444851996411623,NA
kh1,dt1,85,0,0,1,4.516073657394372,16,198.625,132.97403349107944,453.3083475939588,10.418794081119843,NA
kh1,dt1,86,1,1,1,1.294214291159733,5,311,29.76631971518178,16.085611738468558,5.878049117336432,NA
kh1,dt1,87,1,1,1,1.183393692392201,7,208,23.18406809520547,31.806553256767835,6.01316235952736,NA
kh1,dt1,88,0,0,1,4.208720319669737,14,233.71428571428572,106.17166537142162,225.81933493247288,6.027207323448573,NA
kh1,dt1,89,1,1,1,4.6579128963594485,16,228.3125,109.32895789494653,374.3280828503706,8.465191187621773,NA
kh1,dt1,90,0,0,1,4.203217462142675,12,270.75,135.51521403702168,460.22109285132456,8.434341920884954,NA
kh1,dt1,91,1,1,1,1.5245020235361153,6,291.5,34.16584473853466,17.77867391065476,6.612911188361876,NA
kh1,dt1,92,1,1,1,2.120367683953191,10,215.3,71.25439150054193,180.90790671692335,8.62422919894355,NA
kh1,dt1,93,1,1,1,4.653940348637661,16,200.375,117.69435165951764,410.33954100012903,9.312362828863774,NA
kh1,dt1,94,0,0,1,4.164065424442015,13,250,115.65478042305988,408.18510445803327,9.380553814515812,NA
kh1,dt1,95,1,1,1,2.44724242724169,11,232.63636363636363,72.49757754265238,234.43941479743347,9.32605588467202,NA
kh1,dt1,96,1,1,1,1.9847060041620352,9,216.33333333333337,83.07746778848832,209.18592900856933,6.901609119131419,NA
kh1,dt1,97,1,1,1,2.233607196210869,10,218.6,68.63389185937741,146.16026030543313,6.911370914545194,NA
kh1,dt1,98,0,0,1,4.208317831124077,15,206.26666666666668,152.5236159712081,364.16303011296367,9.371772846573874,NA
kh1,dt1,99,1,1,1,1.7132387158135316,8,229.25,42.92795752761595,106.46197790295932,7.790666189544858,NA
kh1,dt1,100,0,0,1,4.218139973853795,13,223.15384615384616,98.71589407967171,200.8883046552601,7.034407413030052,NA
kh1,dt2,1,1,1,1,5.936781707279579,33,243.8181818181818,236.4501504263686,566.2276602756286,10.742376590001257,NA
kh1,dt2,2,1,1,1,2.745414475024063,10,255.8,50.488980552615914,159.8259784291062,10.662669916206648,NA
kh1,dt2,3,1,0,0,4.4983223480981,13,274.38461538461536,110.7675074844062,223.99680555577405,8.035670456053088,NA
kh1,dt2,4,0,0,1,5.111858251214244,14,225.92857142857144,132.7943928868391,421.9799209233795,8.937835246276348,NA
kh1,dt2,5,0,0,1,5.238817360653684,21,195.57142857142856,141.0586761527407,415.86895930716224,7.439853499034506,NA
kh1,dt2,6,1,1,1,2.3241756522591004,13,246.07692307692307,63.853924353667416,106.88427837664644,7.325336631666298,NA
kh1,dt2,7,1,1,1,2.534652983762726,14,284.2142857142857,72.71583771940722,208.8704745866516,6.567410508398358,NA
kh1,dt2,8,0,0,1,4.4473138227365325,17,237.94117647058823,111.2940147393439,314.6762381941514,8.20804538122243,NA
kh1,dt2,9,1,1,1,3.3122929957321503,19,231.6315789473684,105.27187645890191,254.6695986159575,7.532167764452698,NA
kh1,dt2,10,1,1,1,2.520668000141086,15,228.6,116.76098713856211,283.9920943844155,8.401202577155432,NA
kh1,dt2,11,1,1,1,2.847099579363885,13,234.46153846153845,96.97872378028876,251.30959049103407,8.19462282602881,NA
kh1,dt2,12,1,1,1,2.661084164763679,14,263.35714285714283,67.79135552338823,188.0727021610152,7.072236076627396,NA
kh1,dt2,13,0,0,1,4.471154797947975,20,230.4,145.32793160458877,373.7526056914458,8.71190072345883,NA
kh1,dt2,14,0,0,1,4.177536986279392,17,251.8823529411765,124.25449492571624,279.25849582727625,7.768110276471488,NA
kh1,dt2,15,0,0,1,4.3398581988763,19,266.2631578947368,143.65222685009428,386.3311572037299,8.047275895483331,NA
kh1,dt2,16,0,0,1,4.222254459231863,24,216.91666666666663,213.37739696442495,425.3670021198701,9.429252858153472,NA
kh1,dt2,17,1,1,1,2.5709304283614074,14,254.57142857142856,89.37307436340008,204.71584825514265,7.0994579457477185,NA
kh1,dt2,18,0,0,1,4.348253569490225,18,204.94444444444449,167.4843440459202,455.6782402074291,9.2178745365806,NA
kh1,dt2,19,1,0,0,4.297437897297186,22,212.22727272727272,158.91654000251685,397.0428391043366,8.087455328061056,NA
kh1,dt2,20,0,0,1,4.2072446231509275,22,202.45454545454547,189.88523838529852,474.5241329192879,9.332412115416329,NA
kh1,dt2,21,1,1,1,2.234314608940622,15,254.4,113.0579361010209,199.0099601223815,8.06877208909129,NA
kh1,dt2,22,1,1,1,2.268060215699734,8,291,34.49113924591706,106.91397366126958,7.330243583429444,NA
kh1,dt2,23,1,1,1,2.3257546020226982,13,280.46153846153845,74.81623177143433,158.32093769810248,7.453200015631907,NA
kh1,dt2,24,0,0,1,4.266526777008039,22,213.36363636363637,175.87966444662408,427.8695502275439,8.62765998481512,NA
kh1,dt2,25,1,1,1,2.414998970311899,8,300.625,49.87079361440125,201.2909385310261,8.811905769795887,NA
kh1,dt2,26,0,0,1,4.253749543466711,20,242.95,206.82275583943215,456.5159496282893,8.974403008467846,NA
kh1,dt2,27,1,1,1,2.6963973435190383,11,269.09090909090907,56.24650358393902,169.2743306696109,7.065428743845388,NA
kh1,dt2,28,1,1,1,2.412114137217941,15,279.6,79.11523328157709,77.40906243636594,5.6116675482165,NA
kh1,dt2,29,0,0,1,4.686055805676915,18,216.16666666666663,128.8882924494937,324.5093216803369,9.363605268678796,NA
kh1,dt2,30,1,1,1,4.51506615603239,17,228.41176470588235,122.90922867682544,395.5278317724554,8.353181282176324,NA
kh1,dt2,31,0,0,1,4.223489800399875,23,238.65217391304347,144.76396559158354,281.6900834897121,6.91079398601699,NA
kh1,dt2,32,1,1,1,2.932880555052634,10,301.8,57.39208979962755,145.81339410845143,7.881332438401746,NA
kh1,dt2,33,0,0,1,4.2602658756841265,17,187.23529411764707,137.8405224957045,331.96325446099485,9.54168617701742,NA
kh1,dt2,34,0,0,1,4.401586003980356,14,237.1428571428571,97.9172720229837,244.6624082174804,7.2458559710357004,NA
kh1,dt2,35,0,0,1,4.295290343574379,15,218.8,149.71323072260398,298.64952399044097,7.814970953808951,NA
kh1,dt2,36,0,0,1,4.293289278615248,14,237.3571428571429,94.66126776061952,194.74565735592975,6.570985711919822,NA
kh1,dt2,37,1,1,1,2.503126326220809,8,324.375,38.73234406450587,64.14689486739644,4.45765771168239,NA
kh1,dt2,38,0,0,1,4.4335071856294235,18,197.66666666666663,133.9824330889496,461.9387665747436,8.674825063920222,NA
kh1,dt2,39,0,0,1,4.139276965594945,12,284.9166666666667,66.59834465025894,114.42931297441484,9.018873462378153,NA
kh1,dt2,40,1,1,1,2.309394509316462,8,304.25,47.37070941933663,73.40960318858416,5.473652522333932,NA
kh1,dt2,41,1,1,1,1.5313204354956724,9,206.77777777777777,54.10590696787475,74.72556701938947,8.8839311289079,NA
kh1,dt2,42,0,0,1,4.34622889566208,13,253.76923076923077,112.98177716470018,292.92392543447096,8.000389752760706,NA
kh1,dt2,43,0,0,1,4.00203775826094,18,238.05555555555551,145.47333399224195,286.19282869101363,8.732656877350363,NA
kh1,dt2,44,1,0,0,6.309276180528741,13,254.84615384615384,134.71568924145723,371.3449831572473,11.064968506473903,NA
kh1,dt2,45,0,0,1,4.169635126355843,14,266.2857142857143,105.77525806346974,192.41446612373517,5.942631198039316,NA
kh1,dt2,46,0,0,1,4.289011522265355,13,248.3846153846154,123.130000553256,332.97302196194,8.174490328686035,NA
kh1,dt2,47,1,1,1,3.0146679341501113,14,199.07142857142856,102.01290528735998,252.52190021186829,8.106575301540824,NA
kh1,dt2,48,1,1,1,2.1059275896086547,9,243.22222222222223,57.89067281079064,144.03424081039842,5.658167703118209,NA
kh1,dt2,49,0,0,1,4.216039353424549,15,215.8,115.7218182290105,218.35869688277444,7.215759495236057,NA
kh1,dt2,50,0,0,1,4.153726162153362,11,304.72727272727275,81.17958289150914,225.5928568012051,8.633142022964188,NA
kh1,dt2,51,0,0,1,4.010467831067217,15,206.66666666666663,144.5088023639679,355.28073989871126,9.571824178903013,NA
kh1,dt2,52,1,1,1,1.573316346325555,7,272.7142857142857,56.87581813568694,154.30320695739624,8.238561182294776,NA
kh1,dt2,53,1,1,1,2.0153050891617568,10,226.9,62.74269458506605,182.35674882047877,8.125244969986415,NA
kh1,dt2,54,0,0,1,4.256168741402689,14,236.3571428571429,119.172954046291,309.33259528229854,9.934858015468508,NA
kh1,dt2,55,1,1,1,5.057328591079568,16,216.375,105.93149616801466,239.3527627726745,8.384756025784329,NA
kh1,dt2,56,0,0,1,5.070299815566159,15,207.06666666666663,152.68446768492353,422.6259202746636,8.75590169616403,NA
kh1,dt2,57,0,0,1,4.476054633767035,13,246.76923076923077,102.160265235292,335.7059742162509,9.12452964344714,NA
kh1,dt2,58,0,0,1,4.009334036479686,14,232.07142857142856,138.6688109442036,346.5379894009616,8.436620948178597,NA
kh1,dt2,59,1,1,1,2.254904671370241,10,231.4,73.77461420914791,198.67803104434077,8.267138914865962,NA
kh1,dt2,60,0,0,1,4.4085167713988085,13,254.46153846153845,130.6108006574214,289.89191306800404,8.47296763842362,NA
kh1,dt2,61,0,0,1,4.33894826187543,13,251.46153846153845,130.3130890940631,311.3398080740892,8.27735469818657,NA
kh1,dt2,62,1,1,1,2.095498158508235,8,264.5,41.816988151197506,82.65809750808043,5.339670441687594,NA
kh1,dt2,63,0,0,1,4.001444976544917,14,233.1428571428571,142.71135606479183,358.59170387442737,9.831924930073926,NA
kh1,dt2,64,1,1,1,1.325068522608035,6,243.66666666666663,35.406944680890966,43.015893213513266,8.787656834397525,NA
kh1,dt2,65,1,1,1,3.190790379414466,12,260,75.16738758820313,114.2617579426564,9.108651498542352,NA
kh1,dt2,66,0,0,1,4.241906993572684,15,217.6,95.84274093111058,293.813929380054,6.936512399185827,NA
kh1,dt2,67,1,1,1,1.383490517199334,7,222.57142857142856,30.486802327029025,33.649001226792876,5.6003653036870356,NA
kh1,dt2,68,0,0,1,4.237893770330629,14,231.92857142857144,113.75062966688044,299.9088034635244,7.963239733278711,NA
kh1,dt2,69,1,0,0,4.416753422148304,16,213.5,118.5614351624862,287.99603476787956,9.385818768691015,NA
kh1,dt2,70,0,0,1,4.261648558948764,13,260.46153846153845,82.97618921414406,134.95331247898255,7.372376073183115,NA
kh1,dt2,71,1,1,1,2.1655914675843633,9,243.44444444444449,67.56226210881034,164.97069470731714,8.39933701400295,NA
kh1,dt2,72,1,0,0,4.344973074511927,15,206.73333333333332,125.81211722643978,240.81461003039823,8.02041059991329,NA
kh1,dt2,73,1,1,1,1.426386693927725,6,256.1666666666667,41.82868412738581,66.3345217608211,5.0527066211992135,NA
kh1,dt2,74,1,1,1,1.3596990352789362,6,257.3333333333333,38.64288336885738,68.3591295397794,7.20276423361047,NA
kh1,dt2,75,1,1,1,1.8553370834456473,7,281,50.0159217855209,108.35235612945895,6.653678322681484,NA
kh1,dt2,76,1,1,1,1.2160453267520095,6,229.5,39.363937691177725,81.32506007555172,8.041791717057729,NA
kh1,dt2,77,1,1,1,2.7344212755160697,11,239.72727272727272,89.3575449302091,303.93747591776304,9.000147164624462,NA
kh1,dt2,78,1,1,1,3.333696853022957,12,268.8333333333333,99.78188910995108,237.68445093179943,10.49122981262429,NA
kh1,dt2,79,0,0,1,4.46085109118485,13,248.76923076923077,139.17958048183206,311.8129641422147,9.751006756927016,NA
kh1,dt2,80,1,1,1,1.664228126525359,5,373.8,47.53159325512695,84.29282457003595,9.857696415602843,NA
kh1,dt2,81,0,0,1,4.608994182547576,14,238.3571428571429,105.75263164981182,322.34543713660315,9.392269314278174,NA
kh1,dt2,82,1,1,1,2.792553421465527,12,223.58333333333337,107.50192806389424,305.3137250841082,8.646990332872404,NA
kh1,dt2,83,0,0,1,4.345400878591136,14,232.42857142857144,120.3849071723297,379.56924763080946,9.134726246054656,NA
kh1,dt2,84,1,1,1,1.1315156211067006,4,342.5,23.40397547652919,11.480432231040814,5.743071694426114,NA
kh1,dt2,85,1,1,1,2.8933652821060605,10,287,73.08621781105848,156.1123732734093,8.361162941628859,NA
kh1,dt2,86,0,0,1,4.171581578028054,16,196.0625,161.72846580437164,527.2579842399218,10.359944630051498,NA
kh1,dt2,87,0,0,1,4.31038437513871,16,192.3125,150.65828283193375,437.30039061344667,8.998361222303604,NA
kh1,dt2,88,0,0,1,4.344282159545855,14,233.6428571428571,103.33296945826883,192.2012487941483,6.6570910812202655,NA
kh1,dt2,89,1,1,1,2.402844100684433,11,215,73.43881192286047,160.780847452809,8.167160627184913,NA
kh1,dt2,90,0,0,1,4.228858969151133,13,253.84615384615384,132.09089085038636,409.54443341116263,10.745690769614622,NA
kh1,dt2,91,0,0,1,4.204501158825678,14,221.5,118.1017307198144,233.48840605116845,8.525836488340682,NA
kh1,dt2,92,0,0,1,4.321638125535628,15,217.86666666666667,115.0833077214801,255.70896279462815,7.144532493647066,NA
kh1,dt2,93,1,1,1,3.2122721744167393,14,214.78571428571428,102.15504048796495,201.98612081159567,6.923957521399816,NA
kh1,dt2,94,0,0,1,4.2578438333066515,13,250.53846153846155,132.96080643065508,362.0997720822323,8.441085085944419,NA
kh1,dt2,95,0,0,1,4.250259128667949,16,202.25,136.99709480127336,473.8065266997703,9.700190450575226,NA
kh1,dt2,96,0,0,1,6.045141579256779,15,212.4,126.86283386616408,206.94645679962252,9.306665191349955,NA
kh1,dt2,97,1,1,1,1.4241728647057244,7,271,56.684773650030834,84.33979067017792,6.386699887133553,NA
kh1,dt2,98,0,0,1,4.3702012840949465,13,249.15384615384616,128.9847765517665,391.9874131980052,10.25547442790255,NA
kh1,dt2,99,0,0,1,4.176228258507308,14,233,128.716014296759,391.14982429668635,8.165420428872398,NA
kh1,dt2,100,1,1,1,1.7318797665734564,4,400.25,19.337716760569908,41.91256602723104,7.088943145654839,NA
kh1,dt3,1,1,1,1,4.84362452455116,28,240,240.25534261565537,488.7020956157382,8.812229105058316,NA
kh1,dt3,2,1,1,1,1.5324269234397434,6,285.6666666666667,36.0530599864539,50.11482655418678,6.571121630897107,NA
kh1,dt3,3,0,0,1,4.638427330763989,12,278.75,114.14793747304942,217.65141517065217,7.517615296396367,NA
kh1,dt3,4,1,1,1,2.013289517548401,9,235.66666666666663,45.69317784562125,81.61843385660956,7.542588640581619,NA
kh1,dt3,5,1,1,1,1.9646498434985915,7,306,41.25711229001429,68.71366881424149,8.371141513050164,NA
kh1,dt3,6,0,0,1,4.144780107565566,16,202.375,152.68758966378903,368.5646082893791,9.726781124525967,NA
kh1,dt3,7,0,0,1,5.023675144241679,14,231,138.34791739749107,410.1393653457837,8.34087056560733,NA
kh1,dt3,8,1,1,1,1.522938433759009,7,245.8571428571429,37.942418573004254,52.45199263395765,6.363152202369492,NA
kh1,dt3,9,1,1,1,1.6932033195780605,7,263.57142857142856,34.35739282427372,69.09686252274038,6.777135256881652,NA
kh1,dt3,10,1,1,1,1.6829309016766274,8,224.25,57.95078773869381,47.27127753388819,8.46170840028471,NA
kh1,dt3,11,1,1,1,2.5339651976828463,7,375.57142857142856,49.24598298265611,116.08913366576964,7.10949144109687,NA
kh1,dt3,12,0,0,1,4.235958696425769,16,199.625,145.7434034872607,464.4684827087748,8.340517644074401,NA
kh1,dt3,13,0,0,1,4.781142657869168,13,255.30769230769232,111.38113277470782,258.30496832863406,8.907536078697051,NA
kh1,dt3,14,0,0,1,4.138217695387539,12,277.9166666666667,104.41586567613275,245.596935003408,7.883484973453882,NA
kh1,dt3,15,1,1,1,1.968354729226121,9,226.66666666666663,57.690383537067994,109.46802378637734,6.196709554654904,NA
kh1,dt3,16,1,1,1,1.6325239758016323,6,300.8333333333333,38.68055766543067,69.7688940950051,6.281109077180557,NA
kh1,dt3,17,1,1,1,1.5753145668422803,8,201.375,65.6114709094367,70.05688466987253,6.112899582365849,NA
kh1,dt3,18,0,0,1,4.385113840257873,14,227,148.89658676116508,264.2250635120661,8.3326519805814,NA
kh1,dt3,19,1,1,1,1.0742976788214946,4,322.75,43.166532453041526,18.1034594667765,6.573069688029988,NA
kh1,dt3,20,0,0,1,4.1824652665191024,12,282.8333333333333,112.62417759459308,354.64746814143933,10.342648951164794,NA
kh1,dt3,21,1,1,1,1.4760839315194971,6,278.1666666666667,40.01402286149903,61.32146760362237,4.764006841841076,NA
kh1,dt3,22,0,0,1,4.154194641753747,14,226.28571428571428,158.13886904658457,375.4056188547554,9.06425425518927,NA
kh1,dt3,23,1,1,1,2.0960954913316527,9,246,63.29480736570401,136.8982057114558,9.326613924563684,NA
kh1,dt3,24,0,0,1,4.40226212784728,12,276.5,123.01446350391376,234.7462831150408,7.132525854234226,NA
kh1,dt3,25,0,0,1,4.485406874675391,13,252.84615384615384,106.18324692390128,224.988991812078,8.057633450585632,NA
kh1,dt3,26,0,0,1,4.333401884386149,14,225.28571428571428,126.54909894772788,354.6850775426261,8.106263084761563,NA
kh1,dt3,27,1,1,1,2.9349507399529102,12,229.91666666666663,135.52048173394982,409.17888303312907,9.545778405721284,NA
kh1,dt3,28,1,1,1,2.6665051023601336,10,265.9,69.61787816993818,156.22786386320632,8.11570248643523,NA
kh1,dt3,29,1,1,1,1.3439453776109076,4,390.5,15.963045960992831,29.7863754839893,5.254392004881708,NA
kh1,dt3,30,0,0,1,4.167309510562518,16,202.1875,123.33647096411802,394.8617129619424,8.214521771679104,NA
kh1,dt3,31,1,1,1,1.187459537812174,5,268.8,50.029479830140346,17.86403096295014,5.4813468956332745,NA
kh1,dt3,32,1,1,1,1.8856952442074544,8,239.5,53.83542424535466,148.36412081589754,8.530991134858553,NA
kh1,dt3,33,1,1,1,2.5642403007368557,11,234.27272727272728,60.47150607529343,65.03720558999439,5.456622619393525,NA
kh1,dt3,34,0,0,1,4.320008544704251,14,235.57142857142856,123.96348290901452,228.9465321720348,9.270799092587977,NA
kh1,dt3,35,0,0,1,4.337109614555629,12,266.0833333333333,116.73012211790954,267.3162546255548,7.672088447738815,NA
kh1,dt3,36,0,0,1,4.184708109049097,14,232.92857142857144,129.7490616068518,199.08284522817723,7.023693182160492,NA
kh1,dt3,37,0,0,1,4.293699731598281,14,233.92857142857144,106.68839524500213,241.57082998061577,7.743202635967748,NA
kh1,dt3,38,0,0,1,4.360131959353566,13,260.46153846153845,93.6814364747026,205.5354395715859,7.536223965111785,NA
kh1,dt3,39,1,1,1,1.711170522023167,10,176.5,58.81454455017186,91.38363197192125,5.080383972552862,NA
kh1,dt3,40,0,0,1,4.301341609521842,13,255.23076923076923,97.98801100825094,210.2187705235655,6.4774738236612865,NA
kh1,dt3,41,0,0,1,4.435202757515981,13,257.46153846153845,101.40314433564642,206.11273913206347,6.538545857770936,NA
kh1,dt3,42,1,1,1,2.157136079244083,9,239.44444444444449,56.30018664266607,170.5793783516352,7.505917627939917,NA
kh1,dt3,43,0,0,1,4.25378680565791,14,229.71428571428572,112.67142728226322,273.5488204592237,8.351857383373638,NA
kh1,dt3,44,0,0,1,4.492022762362467,14,229.3571428571429,134.92267812702772,415.3700376218905,9.835758124491004,NA
kh1,dt3,45,0,0,1,4.404194926198215,15,212.33333333333337,123.05893906636524,262.56386232414405,6.924876249211029,NA
kh1,dt3,46,1,1,1,2.5815737615021135,10,254.1,71.45420573582425,224.5837758964363,8.565424819239665,NA
kh1,dt3,47,0,0,1,4.269267396891337,16,203.8125,108.5890259335538,218.73110957046325,6.568454009092762,NA
kh1,dt3,48,0,0,1,5.2277800722949905,13,244.53846153846155,140.690343946574,257.1693236446723,8.200692423143709,NA
kh1,dt3,49,1,1,1,2.2474038777700116,8,279.75,65.58535056125616,218.9807164973919,9.16277589577288,NA
kh1,dt3,50,1,1,1,2.335683980216345,9,261.22222222222223,80.32468300797461,321.55163700205736,8.394530548170838,NA
kh1,dt3,51,0,0,1,4.570050642446404,13,250.53846153846155,108.01453055829812,195.30329397059367,6.709319793605986,NA
kh1,dt3,52,1,1,1,1.7168659482740622,8,248.375,41.89085658730868,63.4824377657145,5.25569191464359,NA
kh1,dt3,53,1,1,1,1.673227372179099,7,258.14285714285717,53.05212719112322,110.0263214324662,7.738214138534861,NA
kh1,dt3,54,1,1,1,1.5563407163663214,5,352.8,20.7121589010966,4.026433712451139,2.7136440317744626,NA
kh1,dt3,55,1,1,1,1.7051829715774147,7,261,47.29146883042986,72.04756802393045,6.978065359952579,NA
kh1,dt3,56,0,0,1,4.152191870130082,13,259,92.4101763787044,165.74865930452106,6.330761830236086,NA
kh1,dt3,57,1,1,1,1.3224487915103964,7,207.57142857142856,56.06425631171623,124.45153909873048,6.777325779566125,NA
kh1,dt3,58,0,0,1,4.286290813476626,12,281.5,86.81833430159911,150.04841793051446,6.1425261422715565,NA
kh1,dt3,59,0,0,1,4.163937993439504,15,221.73333333333332,96.13337386439198,174.6561234945338,6.707737649500634,NA
kh1,dt3,60,1,1,1,1.8405064472117376,7,272.85714285714283,52.85019820000238,110.06289363517394,6.890944355617584,NA
kh1,dt3,61,0,0,1,4.41876899376166,13,249.07692307692307,127.4232535064296,302.57781097076025,7.3433926152400595,NA
kh1,dt3,62,1,1,1,2.473587933649469,10,246.4,58.77554301072552,125.04560913602396,5.534326555120151,NA
kh1,dt3,63,1,1,1,1.1237289610844527,4,334.75,17.26851120345554,11.342777001915556,2.863994940301556,NA
kh1,dt3,64,1,1,1,4.227238206090078,14,232.07142857142856,97.83190546098518,205.09941082648095,6.653651794583639,NA
kh1,dt3,65,1,1,1,2.271513937196687,11,204.54545454545453,62.99122025585626,120.0967553734128,6.666460787128012,NA
kh1,dt3,66,0,0,1,4.2036486795532255,15,213.86666666666667,114.06377906083584,233.6967039921946,6.008965441758973,NA
kh1,dt3,67,1,1,1,5.0279338428299525,14,239.21428571428572,98.10886985340088,175.3635439867346,6.4936107440592945,NA
kh1,dt3,68,1,1,1,1.2748481921298662,8,173.5,40.884748617633264,87.1992738347159,6.598442600471957,NA
kh1,dt3,69,0,0,1,4.409046690947434,15,219.2,103.19791478325897,255.40132388237635,7.256891099382737,NA
kh1,dt3,70,1,1,1,1.1718785377752283,6,237.33333333333337,16.913773258783007,11.88602796584389,2.920930651379974,NA
kh1,dt3,71,0,0,1,4.24182934030523,15,215.8,130.73528858358785,327.7975330274462,7.853963443919956,NA
kh1,dt3,72,0,0,1,4.250800425983471,14,229.28571428571428,129.51704661281337,186.519285616444,8.677796203890441,NA
kh1,dt3,73,0,0,1,4.256803051972383,14,231.42857142857144,123.7924413307591,283.91662358663683,9.174734996103783,NA
kh1,dt3,74,1,1,1,3.429674015566889,10,327.7,89.47319453703483,243.45062074799324,8.166482189860712,NA
kh1,dt3,75,0,0,1,4.355134274729608,13,260.2307692307692,106.6681309582239,219.0302536810876,10.133055098172076,NA
kh1,dt3,76,1,1,1,1.3918736567120504,7,222.57142857142856,27.192748527296168,41.35381917194164,4.122573030401866,NA
kh1,dt3,77,0,0,1,4.23947186676196,12,277.5,110.40261262601224,296.981098934239,9.463646429655858,NA
kh1,dt3,78,1,1,1,1.7738651529680285,7,274.57142857142856,40.09002010555591,66.72049472299095,6.931941303954614,NA
kh1,dt3,79,0,0,1,4.273432797781425,14,228.1428571428571,143.75473649124345,370.2510163220276,8.922170373979455,NA
kh1,dt3,80,0,0,1,4.166633955584075,16,195.4375,146.47487696197234,459.38694788720886,10.025226451454884,NA
kh1,dt3,81,0,0,1,4.522490718585686,13,253.46153846153845,105.54646619282876,188.81401420915032,8.086640319461576,NA
kh1,dt3,82,1,1,1,1.3561073583441612,7,212.42857142857144,53.21902356492508,129.34093290205615,7.593694882176792,NA
kh1,dt3,83,1,1,1,3.024094130550111,12,240.33333333333337,99.38425326265572,199.31569628671937,7.105805049341963,NA
kh1,dt3,84,0,0,1,4.299723975345842,13,240.76923076923077,166.57559290828226,237.12085773009585,9.115953004983004,NA
kh1,dt3,85,1,1,1,2.793142505407559,10,273.2,69.28108367267086,161.81000399151876,7.850644943342269,NA
kh1,dt3,86,0,0,1,4.1761429252474045,14,233.8571428571429,110.43518547253451,182.13015016966932,6.4847037995188375,NA
kh1,dt3,87,1,0,0,4.243188699146231,15,234.8,128.40053519317243,355.0756740726639,9.144185876448208,NA
kh1,dt3,88,0,0,1,4.584335430256033,14,226.3571428571429,124.84957501485329,368.1152822215204,8.991846601545602,NA
kh1,dt3,89,0,0,1,4.2820281326694385,16,193.125,130.23164577497525,293.1988159003797,6.795089760365761,NA
kh1,dt3,90,1,1,1,2.22665310436696,10,226.9,51.89279922806541,84.43689289961611,7.180037571903951,NA
kh1,dt3,91,0,0,1,4.431168200959291,15,203.46666666666667,142.18743722074285,291.8430331434587,7.675105135088248,NA
kh1,dt3,92,1,1,1,1.2555751063537173,7,203.8571428571429,36.8932230526645,41.47429123612386,5.319513962363725,NA
kh1,dt3,93,0,0,1,4.250054328842452,14,232.5,128.17433095236942,329.66867560468876,8.052024618777622,NA
kh1,dt3,94,0,0,1,4.220787580483375,14,229.21428571428572,145.54156695935595,368.625174837183,6.704962062714736,NA
kh1,dt3,95,0,0,1,4.41294670539628,13,251,119.90606144839153,283.2015008000972,9.093044559009432,NA
kh1,dt3,96,0,0,1,4.455407113608999,12,280,106.94365881649748,247.3134692693433,8.858802148489678,NA
kh1,dt3,97,1,1,1,1.629483836174586,5,354.4,41.72087825937747,57.92632255416817,5.641529365516542,NA
kh1,dt3,98,0,0,1,4.521908745748988,14,237.71428571428572,98.88700606154175,208.69006048501765,6.35812859574801,NA
kh1,dt3,99,1,1,1,1.0325884877465796,5,251,24.312064494282183,13.233823564054846,4.239403014277227,NA
kh1,dt3,100,1,0,0,4.328634884010171,12,236.75,137.30961229466274,330.46301990322496,9.54686160588176,NA
kh1,dt4,1,0,0,1,4.375417706310145,24,275.9583333333333,209.9848790294479,497.0499072278459,8.477645131710643,NA
kh1,dt4,2,1,1,1,1.115114852879742,4,352.25,15.567147613148276,10.553585826808378,2.8429471530438546,NA
kh1,dt4,3,0,0,1,4.232256370696632,14,237.42857142857144,135.2943342322863,251.7075606257519,9.2233492264252,NA
kh1,dt4,4,0,0,1,4.487203708697052,12,276.6666666666667,120.38184635871254,244.93467281822572,6.918304725232931,NA
kh1,dt4,5,1,1,1,1.483164885476981,5,333.2,36.82376903897488,36.127423513507146,4.394898306854029,NA
kh1,dt4,6,1,1,1,1.2735821309879611,6,238.83333333333337,40.66953738600344,66.0659932658647,7.493886972366587,NA
kh1,dt4,7,1,1,1,1.3742531917487213,5,312.2,33.7648524321046,49.47284817306262,6.120594428173619,NA
kh1,dt4,8,0,0,1,4.412196910480816,12,284.1666666666667,102.49207750583776,180.85181400058744,6.3858904108972965,NA
kh1,dt4,9,1,1,1,1.262111065220779,5,299,27.3998628347392,35.25604531525876,5.947337024363645,NA
kh1,dt4,10,1,1,1,2.161620057639084,10,214.8,63.64642462742418,224.0814358387125,9.22438136734858,NA
kh1,dt4,11,0,0,1,4.273513011046816,14,230.1428571428571,137.2629515830829,374.6525798900139,7.691339228920024,NA
kh1,dt4,12,1,1,1,1.4869283667103446,8,204.375,41.771611860650005,42.71583607605887,4.512039476972685,NA
kh1,dt4,13,1,1,1,2.0986827957904097,8,268.25,65.97140189765027,176.3773068930881,8.651776584788234,NA
kh1,dt4,14,0,0,1,4.163234562928665,13,254.30769230769232,142.7443352490471,329.67448975954284,9.218089334698432,NA
kh1,dt4,15,0,0,1,4.429653251140735,13,251.53846153846155,112.15657816889563,236.17362526280016,6.818897534125716,NA
kh1,dt4,16,0,0,1,4.1702711435909805,14,228.1428571428571,154.76600752292495,369.9728426116377,9.266338366795182,NA
kh1,dt4,17,0,0,1,4.271668105953722,12,276.75,114.00316907544342,263.77627795609044,9.091872027458264,NA
kh1,dt4,18,1,1,1,1.7771268746291753,8,237.625,49.08658231870338,100.49163337490413,6.345097827784165,NA
kh1,dt4,19,1,1,1,1.3739806942030557,4,402.5,14.30227945534067,13.330608060156145,3.333368098838535,NA
kh1,dt4,20,1,1,1,2.085721811295116,9,241.77777777777777,57.75865966531298,115.801574039566,8.679572964863162,NA
kh1,dt4,21,0,0,1,4.248357334735374,11,309.6363636363636,89.9133015940462,215.38064805407564,7.418867121446525,NA
kh1,dt4,22,0,0,1,4.292980087767319,12,277.3333333333333,105.42058801488552,261.52322356001866,9.221610113628826,NA
kh1,dt4,23,0,0,1,4.222941960867502,12,278.3333333333333,93.4456528477392,232.69715508753248,8.023300011796788,NA
kh1,dt4,24,0,0,1,4.155326160788718,13,251,131.36565393662272,335.7124384462083,9.305999634922458,NA
kh1,dt4,25,0,0,1,4.183470492327615,15,219.66666666666663,106.09914610138637,359.0570225202429,7.315711728691864,NA
kh1,dt4,26,0,0,1,4.47680044646404,14,229.57142857142856,142.72184588771518,328.79972605780836,8.213446698886099,NA
kh1,dt4,27,1,1,1,0.9882968277652252,4,316.5,12.72126368999423,10.293205183284073,3.2820586831574183,NA
kh1,dt4,28,0,0,1,4.19834208852626,13,259.7692307692308,82.90336252621454,188.72593998900857,6.536663955496215,NA
kh1,dt4,29,0,0,1,4.468794479962526,14,228.21428571428572,121.14621059572625,341.3827769663114,8.05490839248391,NA
kh1,dt4,30,0,1,0,4.187606879908344,12,272.9166666666667,110.45064317718858,293.83535629370346,7.797238798373983,NA
kh1,dt4,31,1,1,1,1.1266607274719718,7,182,48.7358660135021,89.68717333992689,5.63662667791958,NA
kh1,dt4,32,0,0,1,4.355065723677399,13,255.23076923076923,117.80075036287592,393.1465372799305,7.762295106004721,NA
kh1,dt4,33,1,1,1,2.6211905810287135,9,291.8888888888889,64.96487594153702,115.67001052545145,6.696078870290243,NA
kh1,dt4,34,1,1,1,2.2032959687430775,9,249,60.45855882429359,99.723511206929075,8.32464566484554,NA
kh1,dt4,35,0,0,1,4.440762788326538,14,239.42857142857144,109.00311962474645,176.69668367826816,7.121559881630853,NA
kh1,dt4,36,1,1,1,2.7319235709810528,10,274.4,59.81806593384419,225.879587399047,9.101062799786105,NA
kh1,dt4,37,1,1,1,1.297246181905393,6,255,30.5618473528539,23.406556683156825,5.051827712229261,NA
kh1,dt4,38,0,0,1,4.346784699632735,13,253.30769230769232,104.06931590501222,290.86373882599605,7.792827175047888,NA
kh1,dt4,39,0,0,1,4.601176518106513,15,215.46666666666667,131.53160860623632,282.02038372788775,8.252554751176069,NA
kh1,dt4,40,0,0,1,4.95337305312114,16,198.0625,116.7725354027904,235.65016506844185,7.781069657912358,NA
kh1,dt4,41,1,1,1,2.2323348772961253,10,222.8,71.49203237558321,209.6588184728604,7.401318919498624,NA
kh1,dt4,42,0,0,1,4.821423939051783,16,201.3125,128.4159114187636,300.7703940141536,8.003444543964411,NA
kh1,dt4,43,1,1,1,1.4230658078722629,7,227.42857142857144,35.11083639302056,36.5527734968069,4.795727318346104,NA
kh1,dt4,44,0,0,1,4.8247416962203715,14,232.42857142857144,131.35367426011194,271.95031134556586,8.504244091132499,NA
kh1,dt4,45,0,0,1,4.768685424055548,13,245.84615384615384,111.7965961119125,278.66006517384204,7.743997439376476,NA
kh1,dt4,46,0,0,1,5.2061088374539395,13,239.76923076923077,102.28059429196666,238.8489363072713,8.337568730716844,NA
kh1,dt4,47,0,0,1,4.754190716424091,14,231.57142857142856,143.01995945066898,414.82507381962904,9.688179918771516,NA
kh1,dt4,48,0,0,1,4.685143308677652,15,210,102.0626700920257,150.07929284580217,7.634932188268199,NA
kh1,dt4,49,0,0,1,4.154278268349117,12,285.75,80.43317922952102,167.80632961105198,7.295415224482623,NA
kh1,dt4,50,0,0,1,4.1364128969271405,13,250.76923076923077,111.97370003633002,349.244661090994,7.613942641327034,NA
kh1,dt4,51,1,1,1,2.5754095712063645,11,229.9090909090909,61.8733816480351,101.18303937650435,9.509673480730806,NA
kh1,dt4,52,0,0,1,4.650971320060307,12,274,110.02989439135594,266.8023519960542,8.378876979488709,NA
kh1,dt4,53,0,0,1,4.325568006625872,13,256.53846153846155,100.8960423015317,268.1154854436861,7.522524888404418,NA
kh1,dt4,54,1,1,1,2.514324609997857,10,249,76.70733660510083,219.8950799988029,8.35656439719692,NA
kh1,dt4,55,1,1,1,1.781877092797913,7,267,55.14125216587735,166.58169768011848,8.026766988193783,NA
kh1,dt4,56,0,0,1,4.178380363337965,12,267.3333333333333,108.62256872888936,365.3417550548783,8.000346935805695,NA
kh1,dt4,57,1,1,1,1.6623294614782935,5,375.2,41.06972135655401,95.16525397435552,9.16315110949751,NA
kh1,dt4,58,1,1,1,2.622439859962469,10,251.5,78.38765774560959,274.9042453096273,9.319928266860463,NA
kh1,dt4,59,1,1,1,1.3445142660148122,5,312.8,34.43859642968809,54.295528931964235,5.565651821526685,NA
kh1,dt4,60,0,0,1,4.535357836494768,14,224.1428571428571,128.37148739513788,265.85708071038965,8.239190327827643,NA
kh1,dt4,61,0,0,1,4.582232249828849,14,232.07142857142856,117.72431553849034,277.2329969341317,7.465978492528378,NA
kh1,dt4,62,1,1,1,1.0824168541148538,6,214.83333333333337,25.571621824547123,38.56058158209075,5.095317697789478,NA
kh1,dt4,63,1,0,0,4.2700746495356725,12,296.5,93.82528686761596,170.63252381736353,6.591149125439484,NA
kh1,dt4,64,1,1,1,2.141194119513784,8,268,56.935880908712946,124.06523379479448,5.774080074918146,NA
kh1,dt4,65,0,0,1,4.2421632777986815,14,233.21428571428572,117.49658781904658,271.498092808709,7.014883045334947,NA
kh1,dt4,66,1,1,1,1.4527782802961156,6,243.16666666666663,40.3295045935597,44.15097912505485,6.113291120027319,NA
kh1,dt4,67,0,0,1,4.946713645470481,13,250,159.7763374352919,396.24142067392035,8.756195965771772,NA
kh1,dt4,68,0,0,1,4.233646733954629,11,308.8181818181818,102.13598156318798,227.6811317670821,7.185515800866774,NA
kh1,dt4,69,1,1,1,1.165577245374152,6,222.33333333333337,36.54215216495,37.76509052185568,8.340354806048612,NA
kh1,dt4,70,1,1,1,1.1332911218141817,5,266,37.06501746547253,75.6482025438814,8.832438784371359,NA
kh1,dt4,71,1,1,1,2.1166229760374335,8,271.125,64.29429909908936,181.2904832192851,7.914742997415509,NA
kh1,dt4,72,1,1,1,2.004664031575885,8,259,47.64637257747466,82.91036316913853,7.975936666378282,NA
kh1,dt4,73,1,1,1,2.08105635749871,7,302.2857142857143,56.997168498014446,117.37913101352612,7.218049825797958,NA
kh1,dt4,74,1,1,1,0.9817947177571114,5,224.8,49.30596992656152,81.56451779623671,6.198686273461177,NA
kh1,dt4,75,0,0,1,4.200965801842358,14,233.07142857142856,105.549628780305,134.1026271208123,6.177069308039694,NA
kh1,dt4,76,1,1,1,0.9215579691590392,4,292.75,24.28987080104967,23.517964216969432,4.3046185385663955,NA
kh1,dt4,77,1,1,1,2.565320050926857,10,258,76.89549026199269,132.24109689003754,6.551003245658756,NA
kh1,dt4,78,1,1,1,1.232242432930434,6,232.5,37.4629044619692,59.63010731344751,6.474180832204297,NA
kh1,dt4,79,0,0,1,4.2812934132962255,12,266.8333333333333,112.32598561242769,234.00704911597097,7.893326286497428,NA
kh1,dt4,80,0,0,1,4.300534356877506,12,274.0833333333333,131.6401760730859,299.99032580313326,8.163558138266309,NA
kh1,dt4,81,1,1,1,0.93076286797168,4,297.5,16.949432384550473,11.32555001168464,3.14539903523825,NA
kh1,dt4,82,1,1,1,4.459046861613388,12,282.5,111.42231116008568,213.94300331156504,7.606785665939792,NA
kh1,dt4,83,1,1,1,4.210822931208895,13,256.15384615384613,119.20769325522971,289.05985345716846,7.478083772727048,NA
kh1,dt4,84,0,0,1,4.207563769546141,14,226.8571428571429,101.33184373756116,233.49966184593015,7.567676840181688,NA
kh1,dt4,85,0,0,1,4.344750923590254,12,278.9166666666667,90.68319124899796,240.79272660333365,7.700279491113982,NA
kh1,dt4,86,0,0,1,4.3377672495489605,14,230.1428571428571,141.97336825236022,343.588372227753,8.435666097874844,NA
kh1,dt4,87,1,1,1,2.0166240569251386,9,237.11111111111111,45.762766702780105,90.389060889537,5.455657332819179,NA
kh1,dt4,88,0,0,1,4.6201338708197,12,267.25,136.9324374987293,366.6003954091807,9.18086689129699,NA
kh1,dt4,89,0,0,1,4.512551100400742,13,252,111.78238528940489,314.2249399883394,9.691698903147042,NA
kh1,dt4,90,1,1,1,1.5911922421828422,8,218.375,38.36239441339751,47.33058410466633,4.99446298726375,NA
kh1,dt4,91,1,1,1,0.9248501263500656,4,302.75,13.893272168498417,4.9110398434144384,3.655527066205192,NA
kh1,dt4,92,0,0,1,4.885407955563096,11,302.3636363636364,90.14298464426886,179.94054018196962,6.244284297276904,NA
kh1,dt4,93,1,1,1,1.914857885987658,8,248.875,44.701467744405946,73.96093261390556,5.315436339375838,NA
kh1,dt4,94,0,0,1,4.333676941929298,13,253.92307692307693,102.95925924945396,152.91696562542202,7.157007548524989,NA
kh1,dt4,95,1,1,1,1.2303943989527395,5,289,40.95412770102284,35.05675347088499,7.307659395842159,NA
kh1,dt4,96,1,0,0,4.541682453319481,13,263.84615384615387,100.0456750736472,154.34029045512884,6.454542530951586,NA
kh1,dt4,97,1,1,1,0.931758138232908,6,195.33333333333337,13.862588586884328,5.844679167263087,2.2706217745421045,NA
kh1,dt4,98,1,1,1,1.3638160806549422,4,394.5,31.48849440610114,6.821566746001489,5.170311487596016,NA
kh1,dt4,99,0,0,1,4.338550039992697,13,251.3846153846154,135.94327249382576,341.0600621550404,7.869216407401629,NA
kh1,dt4,100,1,1,1,4.505460190896883,12,241.75,97.06288112563536,210.52166900051537,7.425112024933882,NA
kh1,dt5,1,0,0,1,4.88197442960427,25,268.84,225.73065882591615,553.0984476736631,8.72975187690213,NA
kh1,dt5,2,1,1,1,1.592341681202015,5,359.6,27.063380870312795,23.01552555234801,5.11469065628632,NA
kh1,dt5,3,1,0,0,4.33118094405927,12,279.1666666666667,118.50562335188094,265.12581926160067,7.384339062394839,NA
kh1,dt5,4,0,0,1,4.233774733845621,11,306.45454545454544,130.71435524792545,300.4874689121398,7.718427600794278,NA
kh1,dt5,5,1,1,1,2.5827561960481944,8,331.375,65.99450023594005,91.37433370668316,9.037784663548424,NA
kh1,dt5,6,1,1,1,5.826638654601538,14,244.71428571428572,90.70130677230188,312.4357835683352,8.239376813060641,NA
kh1,dt5,7,1,1,1,4.296406502622176,13,257,102.35611026772384,214.8383174211921,6.927835267607273,NA
kh1,dt5,8,1,1,1,2.0835625953600356,7,321.57142857142856,46.67221452784866,107.7420963004136,7.819586744085602,NA
kh1,dt5,9,0,0,1,4.212754876226882,12,281.6666666666667,103.71063844889646,207.57293928938563,7.366280087275065,NA
kh1,dt5,10,0,0,1,4.173359923177486,11,308,99.16679560209298,196.33022637594516,7.506732444965998,NA
kh1,dt5,11,1,1,1,2.9474822137040064,11,269.6363636363636,58.1492772165491,120.5946362080983,8.539951887838967,NA
kh1,dt5,12,1,0,0,4.836393668499568,14,237.28571428571428,113.68453395391016,269.1170685721259,8.672111518571615,NA
kh1,dt5,13,1,1,1,1.2665216570126177,6,253.33333333333337,18.646714625822188,10.40734449337254,5.369058430331275,NA
kh1,dt5,14,0,0,1,4.333369457746812,10,347.7,79.44548264144991,178.0633131939311,5.850302634803636,NA
kh1,dt5,15,0,0,1,4.39542664923556,13,254.23076923076923,123.21729983555684,289.67685142422016,8.539884829426203,NA
kh1,dt5,16,0,0,1,4.231091856135208,12,282.75,72.70722307518183,238.2447243679488,7.210247188998258,NA
kh1,dt5,17,1,1,1,5.401247515379964,12,286.3333333333333,80.76910596995906,205.71065307239544,7.783917345992761,NA
kh1,dt5,18,1,1,1,2.8348881053402692,11,257.27272727272725,71.55918336091084,202.0459861547937,7.878592411249498,NA
kh1,dt5,19,0,0,1,4.321477983450222,11,312.6363636363636,101.52857116046832,330.6377805427269,8.758247318503418,NA
kh1,dt5,20,0,0,1,4.401535657356362,11,312.90909090909093,89.61133194791253,254.50109768840315,7.735640069239152,NA
kh1,dt5,21,0,0,1,4.141832127858834,13,259.2307692307692,103.8892247262554,230.66552065408948,7.030862539928464,NA
kh1,dt5,22,0,0,1,4.926629040387525,14,238.42857142857144,102.36928374999913,215.51089680955496,7.001702355519867,NA
kh1,dt5,23,0,0,1,4.148389420040985,14,234.6428571428571,121.14140031940366,356.1212358774573,8.094775689434893,NA
kh1,dt5,24,0,0,1,5.139365996630204,13,262,76.22469028538212,155.79902246530807,5.87389789864755,NA
kh1,dt5,25,1,1,1,2.826812734453142,8,368,55.17974086597461,110.64445520489454,7.670575277584158,NA
kh1,dt5,26,0,0,1,4.540815467393259,12,286.75,92.8759523395505,188.39851395929392,6.811288296981524,NA
kh1,dt5,27,0,0,1,4.23353409405081,13,258.84615384615387,86.17020285970732,126.32932120708163,5.472654223473512,NA
kh1,dt5,28,0,0,1,4.300710427838567,13,258.2307692307692,92.71970289445056,190.89570807763573,5.491595476091453,NA
kh1,dt5,29,0,0,1,4.319896473688459,12,274.5,106.16102409166146,222.89684561244124,7.6121743325027085,NA
kh1,dt5,30,1,1,1,2.5102306046032936,9,285.22222222222223,52.91636004461849,112.0672468269326,7.53572177351418,NA
kh1,dt5,31,1,1,1,1.6106928833200982,7,255.71428571428572,32.64243922406641,20.339663039671457,3.8698282171708063,NA
kh1,dt5,32,0,0,1,4.395870666634892,14,251.78571428571428,62.425562239733694,64.57634616721717,3.8736799118338943,NA
kh1,dt5,33,1,1,1,1.3746218314336147,6,271.1666666666667,19.216581504487937,13.338971385920178,3.1216389132227405,NA
kh1,dt5,34,0,0,1,4.387413571629168,10,352,71.95281269796405,164.4697387982678,6.589109830535267,NA
kh1,dt5,35,0,0,1,4.372884161805814,14,238.78571428571428,96.5989815890966,207.39691867285825,6.698284441727248,NA
kh1,dt5,36,0,0,1,4.168862575903859,13,259.0769230769231,102.14899131897243,292.3797103142099,8.961153335539269,NA
kh1,dt5,37,0,0,1,5.756196048046149,14,238.57142857142856,110.578006187652,262.8999438482082,7.157797496201947,NA
kh1,dt5,38,1,1,1,4.222740005483956,12,277.1666666666667,115.78961538844642,257.09596741703234,7.781908196177646,NA
kh1,dt5,39,1,1,1,2.993041925937632,11,274.90909090909093,75.8765831153722,209.27630405632308,8.01408940679888,NA
kh1,dt5,40,1,0,0,4.6377884690869,11,305.1818181818182,102.54494663362284,229.72859078154497,6.776011484479494,NA
kh1,dt5,41,1,1,1,3.3225048270182924,11,291,98.84500450335864,263.2947768227376,8.6501584310529,NA
kh1,dt5,42,1,1,1,5.301580827095222,13,263.15384615384613,86.83492725326967,229.9672121696535,9.33987655532523,NA
kh1,dt5,43,1,0,0,4.446782480968068,11,306.6363636363636,74.46667839687585,108.5157915841598,5.693506374267867,NA
kh1,dt5,44,0,0,1,4.5759426196400455,12,290,62.766326182040054,81.54590300522382,4.4733549551884915,NA
kh1,dt5,45,0,0,1,4.202142263060978,14,242.57142857142856,80.5208951254625,131.64621973702623,5.424223983325257,NA
kh1,dt5,46,1,0,0,5.403985575265324,14,231.21428571428572,131.17283246921963,288.33107909346467,8.128352024730015,NA
kh1,dt5,47,1,1,1,3.2468244649317057,12,264.0833333333333,83.95614839972804,205.99342478590185,7.884236641161877,NA
kh1,dt5,48,0,0,1,4.171649275747768,11,307.27272727272725,85.65797755112268,133.29833813404213,6.803420856430427,NA
kh1,dt5,49,0,0,1,4.138945303655419,13,253.84615384615384,97.6179793494859,178.11261299065097,5.895000895043766,NA
kh1,dt5,50,0,0,1,5.04399982023142,13,257.6923076923077,119.99188827458624,408.5352283347449,8.6353689609527,NA
kh1,dt5,51,1,1,1,4.175014535098853,10,346.5,58.21632252013339,110.39966905962903,6.28298702184603,NA
kh1,dt5,52,1,1,1,2.596026940279444,11,234.63636363636363,63.16626421310608,139.74263854172582,7.22610928731958,NA
kh1,dt5,53,1,1,1,5.103210578593462,14,240,87.13432587661741,148.7435090285685,6.892752875044251,NA
kh1,dt5,54,1,1,1,1.1941599054280232,5,283,27.456479426079795,9.14302146007947,3.663703815858993,NA
kh1,dt5,55,0,0,1,4.23683791345411,11,306.09090909090907,91.98312965058304,242.66470551315263,6.867796438959465,NA
kh1,dt5,56,1,1,1,1.6259658302869866,9,196.33333333333337,44.281634066835146,93.82292923291064,4.893123413614683,NA
kh1,dt5,57,0,0,1,4.387959135608071,14,235,104.40584052160057,214.67068934728724,5.629284634542129,NA
kh1,dt5,58,1,1,1,2.556323080826587,8,317.75,67.39782609992129,104.00637763489102,7.817628839114748,NA
kh1,dt5,59,0,0,1,4.206024357526076,14,236.3571428571429,127.73880468886875,216.52920658952272,6.735263448535617,NA
kh1,dt5,60,0,0,1,4.265796608742676,11,304.54545454545456,95.65918720061862,166.88867921305263,6.644315741519008,NA
kh1,dt5,61,0,0,1,5.373084410523461,12,282.6666666666667,92.15283212761857,123.4831134526538,5.089858881301531,NA
kh1,dt5,62,0,0,1,4.26186331432109,12,278.1666666666667,99.92500520273228,151.43091220037778,5.467281968953782,NA
kh1,dt5,63,1,0,0,4.381078145924221,12,276.1666666666667,106.04717239380577,160.46083520095524,6.278209603248725,NA
kh1,dt5,64,0,0,1,4.47246608571777,12,282.75,80.07551077614187,75.10765413937033,5.3639570031929376,NA
kh1,dt5,65,1,1,1,1.412921105418263,6,271.3333333333333,38.78177728639587,38.85695739536614,4.117488434484827,NA
kh1,dt5,66,1,0,0,4.322264187223482,12,268.9166666666667,100.0321474008406,202.3463172002972,5.925959969870029,NA
kh1,dt5,67,0,0,1,4.367728326204997,13,253.6153846153846,109.6768749459479,196.63198539541108,6.424893436358218,NA
kh1,dt5,68,1,1,1,3.13343789502187,11,289.45454545454544,52.44791632081435,82.0498025127736,7.468274350704905,NA
kh1,dt5,69,1,0,0,5.033576931347852,15,215.46666666666667,123.28524960070864,300.96016481474294,7.782700193151085,NA
kh1,dt5,70,0,0,1,4.461799997041908,15,229,129.4138945255807,258.7066855254628,6.456212613079524,NA
kh1,dt5,71,1,1,1,1.672080493157864,8,225.5,34.35596263243541,52.380572023197416,3.770173650749859,NA
kh1,dt5,72,0,0,1,4.590296242947261,14,238,83.95917405721194,158.69803603948353,5.259925928753605,NA
kh1,dt5,73,1,0,0,4.289697601680473,11,309.54545454545456,95.58867476099029,135.17523643242168,6.7298764125076005,NA
kh1,dt5,74,1,1,1,2.9913793495788923,10,291.2,80.47241616408307,95.45220735074396,6.363783145146788,NA
kh1,dt5,75,1,1,1,2.9059334491589652,12,235.75,107.9239324064828,173.76392098034387,7.818041783263715,NA
kh1,dt5,76,0,0,1,4.5284922067980915,12,278.1666666666667,103.92551249737213,206.9701005424155,6.763179914199838,NA
kh1,dt5,77,0,0,1,4.509907760434544,13,256.0769230769231,104.8501799249183,198.88334156157873,6.562773976737395,NA
kh1,dt5,78,0,0,1,4.274741525553964,13,256.84615384615387,103.94270521521048,252.11904720966297,6.992999843759141,NA
kh1,dt5,79,1,0,0,4.356142060536513,13,256.53846153846155,82.87792101038413,173.17688855385708,6.160883047656267,NA
kh1,dt5,80,1,0,0,5.1350140003437446,14,232.21428571428572,119.28436037653589,279.15726671656597,8.289368755880734,NA
kh1,dt5,81,1,1,1,1.9552688737262545,8,258.5,49.200708533472074,90.33662028052149,5.4963096724004465,NA
kh1,dt5,82,1,1,1,2.0273353722291176,8,270.125,32.89622061173322,45.846586816043526,5.713340663643492,NA
kh1,dt5,83,1,1,1,2.202982226788208,11,202,55.78755900153118,106.8310963898449,5.510609713121978,NA
kh1,dt5,84,1,1,1,1.5722769872122626,7,246.1428571428571,24.425814044191505,26.176771388459077,3.6578730147876577,NA
kh1,dt5,85,0,0,1,4.278412562421181,12,297.0833333333333,91.06021084716096,178.28203059714286,7.0527405619930725,NA
kh1,dt5,86,1,1,1,4.833734684102183,12,283,107.3392492868274,163.53826882616758,7.16371803512596,NA
kh1,dt5,87,1,1,1,3.395614097964881,11,304.6363636363636,71.40248726149566,130.99428205923903,6.368611829761579,NA
kh1,dt5,88,0,0,1,5.344138799668144,13,275.61538461538464,122.86511671537512,151.96667269219176,6.144094150349954,NA
kh1,dt5,89,0,0,1,4.35541871893156,12,266,119.70511867075582,302.8396341966763,9.258879184909995,NA
kh1,dt5,90,0,0,1,6.285085338949557,11,308.8181818181818,82.39278200376832,170.36277186645466,6.448811364438526,NA
kh1,dt5,91,0,0,1,7.088481488940033,15,279.2,96.89376582997248,162.74510781040294,5.313518648850846,NA
kh1,dt5,92,0,0,1,5.885474515506303,11,300.1818181818182,111.14964933047312,345.45906924790245,9.293667500303036,NA
kh1,dt5,93,0,0,1,4.282313145759417,11,318.27272727272725,80.76116917030299,137.5683126231626,5.874867406423537,NA
kh1,dt5,94,0,0,1,5.002335002452128,13,257.9230769230769,85.02280859450934,178.16364753834804,5.340644694641408,NA
kh1,dt5,95,1,1,1,1.3331919645647758,4,396.75,31.973658918194197,24.132482403150483,4.665413329103123,NA
kh1,dt5,96,1,1,1,2.835670611338628,11,271.54545454545456,56.51762682369024,157.70192741991713,7.163230242025959,NA
kh1,dt5,97,0,0,1,4.205266029284303,9,379.8888888888889,79.79452555939613,239.88204807820912,7.735310899580155,NA
kh1,dt5,98,0,0,1,5.187311626827523,11,296.72727272727275,102.79382787435598,147.1136867467444,6.68221379535978,NA
kh1,dt5,99,1,0,0,4.335541758115596,13,265.3076923076923,125.5253512597997,299.4148486442085,8.159311471860526,NA
kh1,dt5,100,1,0,0,4.233278378713749,7,452.57142857142856,68.64365589195465,144.89186517247762,6.774563090221801,NA
kh1,vt1,1,0,0,1,1.1536,NA,NA,NA,NA,NA,6
kh1,vt1,2,0,0,1,0.861,NA,NA,NA,NA,NA,12
kh1,vt1,3,0,0,1,0.8836,NA,NA,NA,NA,NA,6
kh1,vt1,4,1,1,1,0.879,NA,NA,NA,NA,NA,3
kh1,vt1,5,1,0,0,1.0019,NA,NA,NA,NA,NA,20
kh1,vt1,6,1,1,1,0.9612,NA,NA,NA,NA,NA,3
kh1,vt1,7,1,0,0,0.9856,NA,NA,NA,NA,NA,20
kh1,vt1,8,0,0,1,0.9997,NA,NA,NA,NA,NA,12
kh1,vt1,9,1,1,1,1.0276,NA,NA,NA,NA,NA,6
kh1,vt1,10,0,0,1,1.0044,NA,NA,NA,NA,NA,12
kh1,vt1,11,0,0,1,1.0443,NA,NA,NA,NA,NA,12
kh1,vt1,12,1,1,1,1.0181,NA,NA,NA,NA,NA,6
kh1,vt1,13,0,0,1,1.0303,NA,NA,NA,NA,NA,6
kh1,vt1,14,1,0,0,1.0858,NA,NA,NA,NA,NA,20
kh1,vt1,15,1,1,1,0.9674,NA,NA,NA,NA,NA,12
kh1,vt1,16,0,0,1,1.0643,NA,NA,NA,NA,NA,16
kh1,vt1,17,1,0,0,1.2191,NA,NA,NA,NA,NA,16
kh1,vt1,18,0,0,1,1.6106,NA,NA,NA,NA,NA,16
kh1,vt1,19,0,0,1,0.9528,NA,NA,NA,NA,NA,12
kh1,vt1,20,1,1,1,1.0298,NA,NA,NA,NA,NA,16
kh1,vt1,21,1,0,0,1.1724,NA,NA,NA,NA,NA,20
kh1,vt1,22,0,0,1,1.004,NA,NA,NA,NA,NA,12
kh1,vt1,23,1,1,1,1.0711,NA,NA,NA,NA,NA,6
kh1,vt1,24,0,0,1,0.8952,NA,NA,NA,NA,NA,12
kh1,vt1,25,0,0,1,0.8946,NA,NA,NA,NA,NA,3
kh1,vt1,26,1,1,1,1.1732,NA,NA,NA,NA,NA,3
kh1,vt1,27,1,1,1,1.1564,NA,NA,NA,NA,NA,12
kh1,vt1,28,0,0,1,0.8508,NA,NA,NA,NA,NA,12
kh1,vt1,29,0,0,1,1.009,NA,NA,NA,NA,NA,3
kh1,vt1,30,0,0,1,1.0502,NA,NA,NA,NA,NA,16
kh1,vt1,31,0,0,1,0.8544,NA,NA,NA,NA,NA,6
kh1,vt1,32,0,0,1,2.0341,NA,NA,NA,NA,NA,20
kh1,vt1,33,0,0,1,0.8593,NA,NA,NA,NA,NA,12
kh1,vt1,34,0,0,1,1.0499,NA,NA,NA,NA,NA,16
kh1,vt1,35,1,1,1,1.0597,NA,NA,NA,NA,NA,3
kh1,vt1,36,1,1,1,1.0005,NA,NA,NA,NA,NA,6
kh1,vt1,37,1,1,1,0.8978,NA,NA,NA,NA,NA,12
kh1,vt1,38,1,1,1,1.0175,NA,NA,NA,NA,NA,12
kh1,vt1,39,1,0,0,1.1004,NA,NA,NA,NA,NA,16
kh1,vt1,40,0,0,1,1.0113,NA,NA,NA,NA,NA,16
kh1,vt1,41,1,1,1,1.0854,NA,NA,NA,NA,NA,16
kh1,vt1,42,0,0,1,0.9936,NA,NA,NA,NA,NA,20
kh1,vt1,43,0,0,1,1.151,NA,NA,NA,NA,NA,16
kh1,vt1,44,0,0,1,1.1431,NA,NA,NA,NA,NA,16
kh1,vt1,45,1,1,1,1.0532,NA,NA,NA,NA,NA,3
kh1,vt1,46,0,0,1,1.2117,NA,NA,NA,NA,NA,20
kh1,vt1,47,1,0,0,1.2138,NA,NA,NA,NA,NA,20
kh1,vt1,48,0,0,1,1.0773,NA,NA,NA,NA,NA,6
kh1,vt1,49,1,1,1,1.265,NA,NA,NA,NA,NA,20
kh1,vt1,50,1,1,1,1.0876,NA,NA,NA,NA,NA,16
kh1,vt1,51,0,0,1,1.2114,NA,NA,NA,NA,NA,16
kh1,vt1,52,0,0,1,1.0854,NA,NA,NA,NA,NA,16
kh1,vt1,53,1,1,1,1.0897,NA,NA,NA,NA,NA,12
kh1,vt1,54,0,0,1,0.9722,NA,NA,NA,NA,NA,12
kh1,vt1,55,1,1,1,1.0269,NA,NA,NA,NA,NA,3
kh1,vt1,56,0,0,1,1.0321,NA,NA,NA,NA,NA,6
kh1,vt1,57,1,1,1,0.9686,NA,NA,NA,NA,NA,6
kh1,vt1,58,0,0,1,1.0008,NA,NA,NA,NA,NA,6
kh1,vt1,59,0,0,1,1.4557,NA,NA,NA,NA,NA,16
kh1,vt1,60,0,0,1,1.2196,NA,NA,NA,NA,NA,20
kh1,vt1,61,1,1,1,0.9287,NA,NA,NA,NA,NA,3
kh1,vt1,62,0,0,1,1.0043,NA,NA,NA,NA,NA,16
kh1,vt1,63,1,1,1,0.8971,NA,NA,NA,NA,NA,6
kh1,vt1,64,1,1,1,1.0779,NA,NA,NA,NA,NA,12
kh1,vt1,65,0,0,1,0.9811,NA,NA,NA,NA,NA,12
kh1,vt1,66,1,1,1,1.0475,NA,NA,NA,NA,NA,12
kh1,vt1,67,0,0,1,0.9373,NA,NA,NA,NA,NA,3
kh1,vt1,68,0,0,1,1.1637,NA,NA,NA,NA,NA,20
kh1,vt1,69,1,1,1,0.9481,NA,NA,NA,NA,NA,3
kh1,vt1,70,1,1,1,1.1169,NA,NA,NA,NA,NA,6
kh1,vt1,71,0,0,1,1.1029,NA,NA,NA,NA,NA,3
kh1,vt1,72,1,1,1,1.0048,NA,NA,NA,NA,NA,6
kh1,vt1,73,0,0,1,1.0858,NA,NA,NA,NA,NA,20
kh1,vt1,74,1,0,0,2.2222,NA,NA,NA,NA,NA,16
kh1,vt1,75,0,0,1,0.9928,NA,NA,NA,NA,NA,12
kh1,vt1,76,0,0,1,1.0259,NA,NA,NA,NA,NA,12
kh1,vt1,77,1,1,1,1.0045,NA,NA,NA,NA,NA,6
kh1,vt1,78,1,0,0,1.0779,NA,NA,NA,NA,NA,20
kh1,vt1,79,0,0,1,1.0414,NA,NA,NA,NA,NA,6
kh1,vt1,80,1,0,0,1.5409,NA,NA,NA,NA,NA,16
kh1,vt1,81,1,1,1,0.97,NA,NA,NA,NA,NA,6
kh1,vt1,82,0,0,1,1.0212,NA,NA,NA,NA,NA,16
kh1,vt1,83,0,0,1,1.0208,NA,NA,NA,NA,NA,3
kh1,vt1,84,1,0,0,1.1873,NA,NA,NA,NA,NA,16
kh1,vt1,85,0,0,1,1.0512,NA,NA,NA,NA,NA,20
kh1,vt1,86,1,1,1,1.0611,NA,NA,NA,NA,NA,6
kh1,vt1,87,1,0,0,1.3202,NA,NA,NA,NA,NA,16
kh1,vt1,88,1,1,1,1.033,NA,NA,NA,NA,NA,16
kh1,vt1,89,1,0,0,1.048,NA,NA,NA,NA,NA,20
kh1,vt1,90,0,0,1,1.0479,NA,NA,NA,NA,NA,16
kh1,vt1,91,1,1,1,1.1087,NA,NA,NA,NA,NA,12
kh1,vt1,92,0,0,1,0.9834,NA,NA,NA,NA,NA,12
kh1,vt1,93,1,1,1,1.0349,NA,NA,NA,NA,NA,12
kh1,vt1,94,0,0,1,0.9454,NA,NA,NA,NA,NA,6
kh1,vt1,95,0,0,1,0.913,NA,NA,NA,NA,NA,3
kh1,vt1,96,1,1,1,0.9484,NA,NA,NA,NA,NA,6
kh1,vt1,97,1,1,1,1.0225,NA,NA,NA,NA,NA,12
kh1,vt1,98,1,1,1,1.0314,NA,NA,NA,NA,NA,16
kh1,vt1,99,0,0,1,0.9449,NA,NA,NA,NA,NA,20
kh1,vt1,100,1,1,1,0.8416,NA,NA,NA,NA,NA,3
kh1,vt2,1,0,0,1,2.2718,NA,NA,NA,NA,NA,12
kh1,vt2,2,1,1,1,1.0987,NA,NA,NA,NA,NA,16
kh1,vt2,3,1,1,1,0.9729,NA,NA,NA,NA,NA,3
kh1,vt2,4,1,1,1,0.9883,NA,NA,NA,NA,NA,3
kh1,vt2,5,1,1,1,0.9663,NA,NA,NA,NA,NA,12
kh1,vt2,6,0,0,1,0.9844,NA,NA,NA,NA,NA,12
kh1,vt2,7,1,1,1,0.9015,NA,NA,NA,NA,NA,6
kh1,vt2,8,0,0,1,0.858,NA,NA,NA,NA,NA,3
kh1,vt2,9,1,0,0,1.4915,NA,NA,NA,NA,NA,20
kh1,vt2,10,0,0,1,0.8752,NA,NA,NA,NA,NA,3
kh1,vt2,11,0,0,1,0.9007,NA,NA,NA,NA,NA,20
kh1,vt2,12,1,1,1,1.0311,NA,NA,NA,NA,NA,12
kh1,vt2,13,1,1,1,0.962,NA,NA,NA,NA,NA,3
kh1,vt2,14,0,0,1,0.8936,NA,NA,NA,NA,NA,12
kh1,vt2,15,1,1,1,1.0045,NA,NA,NA,NA,NA,12
kh1,vt2,16,0,0,1,0.8552,NA,NA,NA,NA,NA,16
kh1,vt2,17,0,0,1,0.9065,NA,NA,NA,NA,NA,16
kh1,vt2,18,0,0,1,0.8779,NA,NA,NA,NA,NA,12
kh1,vt2,19,0,0,1,0.9171,NA,NA,NA,NA,NA,6
kh1,vt2,20,1,1,1,0.9822,NA,NA,NA,NA,NA,16
kh1,vt2,21,0,0,1,0.8433,NA,NA,NA,NA,NA,6
kh1,vt2,22,1,1,1,0.9795,NA,NA,NA,NA,NA,12
kh1,vt2,23,1,1,1,0.9782,NA,NA,NA,NA,NA,12
kh1,vt2,24,1,1,1,0.9007,NA,NA,NA,NA,NA,3
kh1,vt2,25,1,1,1,0.8996,NA,NA,NA,NA,NA,3
kh1,vt2,26,1,1,1,0.9402,NA,NA,NA,NA,NA,20
kh1,vt2,27,0,0,1,1.1377,NA,NA,NA,NA,NA,20
kh1,vt2,28,0,0,1,0.9012,NA,NA,NA,NA,NA,16
kh1,vt2,29,1,1,1,0.9976,NA,NA,NA,NA,NA,3
kh1,vt2,30,0,0,1,0.9185,NA,NA,NA,NA,NA,16
kh1,vt2,31,1,1,1,0.9015,NA,NA,NA,NA,NA,6
kh1,vt2,32,0,0,1,0.9546,NA,NA,NA,NA,NA,6
kh1,vt2,33,0,0,1,0.8661,NA,NA,NA,NA,NA,6
kh1,vt2,34,0,0,1,0.9653,NA,NA,NA,NA,NA,16
kh1,vt2,35,1,1,1,0.9236,NA,NA,NA,NA,NA,20
kh1,vt2,36,0,0,1,0.8844,NA,NA,NA,NA,NA,12
kh1,vt2,37,1,1,1,0.8321,NA,NA,NA,NA,NA,16
kh1,vt2,38,0,0,1,0.9604,NA,NA,NA,NA,NA,12
kh1,vt2,39,1,1,1,0.9204,NA,NA,NA,NA,NA,6
kh1,vt2,40,1,0,0,1.0991,NA,NA,NA,NA,NA,20
kh1,vt2,41,1,1,1,0.9021,NA,NA,NA,NA,NA,12
kh1,vt2,42,0,0,1,1.0486,NA,NA,NA,NA,NA,20
kh1,vt2,43,1,1,1,0.9943,NA,NA,NA,NA,NA,3
kh1,vt2,44,1,0,0,1.3428,NA,NA,NA,NA,NA,20
kh1,vt2,45,0,0,1,1.0107,NA,NA,NA,NA,NA,6
kh1,vt2,46,0,0,1,0.964,NA,NA,NA,NA,NA,16
kh1,vt2,47,0,0,1,0.9222,NA,NA,NA,NA,NA,16
kh1,vt2,48,0,0,1,0.9128,NA,NA,NA,NA,NA,12
kh1,vt2,49,0,0,1,0.8375,NA,NA,NA,NA,NA,6
kh1,vt2,50,0,0,1,0.7461,NA,NA,NA,NA,NA,6
kh1,vt2,51,0,0,1,0.8248,NA,NA,NA,NA,NA,3
kh1,vt2,52,1,1,1,1.122,NA,NA,NA,NA,NA,20
kh1,vt2,53,0,0,1,0.8748,NA,NA,NA,NA,NA,16
kh1,vt2,54,0,0,1,0.9447,NA,NA,NA,NA,NA,16
kh1,vt2,55,0,0,1,1.1188,NA,NA,NA,NA,NA,20
kh1,vt2,56,1,1,1,2.9258,NA,NA,NA,NA,NA,16
kh1,vt2,57,0,0,1,0.8866,NA,NA,NA,NA,NA,20
kh1,vt2,58,1,0,0,0.9437,NA,NA,NA,NA,NA,20
kh1,vt2,59,0,0,1,0.8648,NA,NA,NA,NA,NA,3
kh1,vt2,60,0,0,1,0.8837,NA,NA,NA,NA,NA,16
kh1,vt2,61,1,1,1,1.0355,NA,NA,NA,NA,NA,12
kh1,vt2,62,1,1,1,0.9705,NA,NA,NA,NA,NA,16
kh1,vt2,63,1,0,0,1.4125,NA,NA,NA,NA,NA,20
kh1,vt2,64,1,1,1,0.9057,NA,NA,NA,NA,NA,6
kh1,vt2,65,1,1,1,0.8396,NA,NA,NA,NA,NA,3
kh1,vt2,66,1,1,1,0.8904,NA,NA,NA,NA,NA,20
kh1,vt2,67,1,1,1,0.8827,NA,NA,NA,NA,NA,3
kh1,vt2,68,0,0,1,0.8859,NA,NA,NA,NA,NA,12
kh1,vt2,69,1,1,1,0.8583,NA,NA,NA,NA,NA,6
kh1,vt2,70,1,1,1,1.0799,NA,NA,NA,NA,NA,12
kh1,vt2,71,0,0,1,0.9779,NA,NA,NA,NA,NA,3
kh1,vt2,72,1,1,1,1.0605,NA,NA,NA,NA,NA,3
kh1,vt2,73,0,0,1,0.785,NA,NA,NA,NA,NA,6
kh1,vt2,74,0,0,1,0.8921,NA,NA,NA,NA,NA,16
kh1,vt2,75,0,0,1,1.0208,NA,NA,NA,NA,NA,20
kh1,vt2,76,1,1,1,0.9732,NA,NA,NA,NA,NA,20
kh1,vt2,77,1,1,1,0.918,NA,NA,NA,NA,NA,6
kh1,vt2,78,0,0,1,1.0242,NA,NA,NA,NA,NA,3
kh1,vt2,79,0,0,1,0.9167,NA,NA,NA,NA,NA,20
kh1,vt2,80,1,1,1,1.0804,NA,NA,NA,NA,NA,20
kh1,vt2,81,1,1,1,1.0195,NA,NA,NA,NA,NA,20
kh1,vt2,82,1,1,1,0.9378,NA,NA,NA,NA,NA,16
kh1,vt2,83,1,1,1,0.8404,NA,NA,NA,NA,NA,3
kh1,vt2,84,0,0,1,0.9679,NA,NA,NA,NA,NA,16
kh1,vt2,85,0,0,1,0.8399,NA,NA,NA,NA,NA,16
kh1,vt2,86,0,0,1,0.8905,NA,NA,NA,NA,NA,12
kh1,vt2,87,1,1,1,0.99,NA,NA,NA,NA,NA,12
kh1,vt2,88,0,0,1,1.0073,NA,NA,NA,NA,NA,6
kh1,vt2,89,0,0,1,0.7885,NA,NA,NA,NA,NA,12
kh1,vt2,90,1,1,1,0.8333,NA,NA,NA,NA,NA,16
kh1,vt2,91,0,0,1,0.9242,NA,NA,NA,NA,NA,12
kh1,vt2,92,0,0,1,0.7986,NA,NA,NA,NA,NA,3
kh1,vt2,93,1,1,1,1.0267,NA,NA,NA,NA,NA,12
kh1,vt2,94,1,1,1,0.8996,NA,NA,NA,NA,NA,12
kh1,vt2,95,1,0,0,1.1936,NA,NA,NA,NA,NA,20
kh1,vt2,96,0,0,1,0.8859,NA,NA,NA,NA,NA,16
kh1,vt2,97,0,0,1,0.7749,NA,NA,NA,NA,NA,6
kh1,vt2,98,1,1,1,0.9289,NA,NA,NA,NA,NA,16
kh1,vt2,99,0,0,1,0.8271,NA,NA,NA,NA,NA,3
kh1,vt2,100,1,1,1,0.9339,NA,NA,NA,NA,NA,6
kh1,vt3,1,0,0,1,1.0338,NA,NA,NA,NA,NA,20
kh1,vt3,2,1,1,1,0.8308,NA,NA,NA,NA,NA,6
kh1,vt3,3,0,0,1,0.9081,NA,NA,NA,NA,NA,12
kh1,vt3,4,0,0,1,0.8345,NA,NA,NA,NA,NA,6
kh1,vt3,5,1,1,1,0.8155,NA,NA,NA,NA,NA,6
kh1,vt3,6,1,1,1,0.7783,NA,NA,NA,NA,NA,16
kh1,vt3,7,0,0,1,0.8477,NA,NA,NA,NA,NA,3
kh1,vt3,8,0,0,1,0.7795,NA,NA,NA,NA,NA,3
kh1,vt3,9,0,0,1,0.7474,NA,NA,NA,NA,NA,12
kh1,vt3,10,0,0,1,0.7224,NA,NA,NA,NA,NA,16
kh1,vt3,11,1,1,1,0.8172,NA,NA,NA,NA,NA,6
kh1,vt3,12,0,0,1,0.9225,NA,NA,NA,NA,NA,20
kh1,vt3,13,0,0,1,0.9272,NA,NA,NA,NA,NA,3
kh1,vt3,14,1,1,1,0.7552,NA,NA,NA,NA,NA,16
kh1,vt3,15,1,1,1,1.0829,NA,NA,NA,NA,NA,12
kh1,vt3,16,0,0,1,0.8583,NA,NA,NA,NA,NA,12
kh1,vt3,17,0,0,1,1.1518,NA,NA,NA,NA,NA,3
kh1,vt3,18,1,1,1,0.8338,NA,NA,NA,NA,NA,6
kh1,vt3,19,1,1,1,0.8175,NA,NA,NA,NA,NA,16
kh1,vt3,20,0,0,1,0.9572,NA,NA,NA,NA,NA,6
kh1,vt3,21,1,1,1,0.8866,NA,NA,NA,NA,NA,6
kh1,vt3,22,0,0,1,0.8362,NA,NA,NA,NA,NA,6
kh1,vt3,23,1,1,1,0.9296,NA,NA,NA,NA,NA,16
kh1,vt3,24,0,0,1,0.8708,NA,NA,NA,NA,NA,6
kh1,vt3,25,0,0,1,0.8483,NA,NA,NA,NA,NA,3
kh1,vt3,26,1,1,1,2.4444,NA,NA,NA,NA,NA,16
kh1,vt3,27,0,0,1,0.7415,NA,NA,NA,NA,NA,3
kh1,vt3,28,0,0,1,0.905,NA,NA,NA,NA,NA,3
kh1,vt3,29,1,1,1,0.9692,NA,NA,NA,NA,NA,3
kh1,vt3,30,1,1,1,0.9239,NA,NA,NA,NA,NA,6
kh1,vt3,31,0,0,1,0.7074,NA,NA,NA,NA,NA,6
kh1,vt3,32,0,0,1,0.8469,NA,NA,NA,NA,NA,20
kh1,vt3,33,1,1,1,0.7564,NA,NA,NA,NA,NA,6
kh1,vt3,34,1,1,1,0.7801,NA,NA,NA,NA,NA,6
kh1,vt3,35,1,1,1,0.8446,NA,NA,NA,NA,NA,16
kh1,vt3,36,1,1,1,0.836,NA,NA,NA,NA,NA,3
kh1,vt3,37,0,0,1,0.9838,NA,NA,NA,NA,NA,20
kh1,vt3,38,0,0,1,0.9183,NA,NA,NA,NA,NA,20
kh1,vt3,39,0,0,1,0.8052,NA,NA,NA,NA,NA,6
kh1,vt3,40,0,0,1,0.9079,NA,NA,NA,NA,NA,16
kh1,vt3,41,1,1,1,0.9064,NA,NA,NA,NA,NA,12
kh1,vt3,42,1,1,1,0.7578,NA,NA,NA,NA,NA,3
kh1,vt3,43,0,0,1,0.8251,NA,NA,NA,NA,NA,12
kh1,vt3,44,1,1,1,0.8101,NA,NA,NA,NA,NA,20
kh1,vt3,45,1,0,0,0.8509,NA,NA,NA,NA,NA,20
kh1,vt3,46,0,0,1,0.841,NA,NA,NA,NA,NA,12
kh1,vt3,47,1,1,1,0.8495,NA,NA,NA,NA,NA,20
kh1,vt3,48,0,0,1,0.9178,NA,NA,NA,NA,NA,12
kh1,vt3,49,0,0,1,0.858,NA,NA,NA,NA,NA,12
kh1,vt3,50,1,1,1,0.7836,NA,NA,NA,NA,NA,6
kh1,vt3,51,1,1,1,1.6073,NA,NA,NA,NA,NA,12
kh1,vt3,52,1,1,1,0.8267,NA,NA,NA,NA,NA,16
kh1,vt3,53,1,1,1,0.7662,NA,NA,NA,NA,NA,3
kh1,vt3,54,0,0,1,0.7873,NA,NA,NA,NA,NA,12
kh1,vt3,55,1,1,1,0.8188,NA,NA,NA,NA,NA,6
kh1,vt3,56,0,0,1,0.7441,NA,NA,NA,NA,NA,12
kh1,vt3,57,0,0,1,0.7871,NA,NA,NA,NA,NA,3
kh1,vt3,58,0,0,1,0.6909,NA,NA,NA,NA,NA,16
kh1,vt3,59,1,1,1,0.8568,NA,NA,NA,NA,NA,20
kh1,vt3,60,1,1,1,0.803,NA,NA,NA,NA,NA,12
kh1,vt3,61,0,0,1,0.8054,NA,NA,NA,NA,NA,20
kh1,vt3,62,0,0,1,0.753,NA,NA,NA,NA,NA,3
kh1,vt3,63,1,1,1,0.8465,NA,NA,NA,NA,NA,12
kh1,vt3,64,1,1,1,0.8441,NA,NA,NA,NA,NA,20
kh1,vt3,65,0,0,1,0.8165,NA,NA,NA,NA,NA,16
kh1,vt3,66,0,0,1,1.0456,NA,NA,NA,NA,NA,12
kh1,vt3,67,1,1,1,0.7915,NA,NA,NA,NA,NA,6
kh1,vt3,68,1,1,1,0.8428,NA,NA,NA,NA,NA,12
kh1,vt3,69,0,0,1,0.7533,NA,NA,NA,NA,NA,12
kh1,vt3,70,0,0,1,0.8627,NA,NA,NA,NA,NA,6
kh1,vt3,71,0,0,1,1.1262,NA,NA,NA,NA,NA,20
kh1,vt3,72,1,1,1,0.8475,NA,NA,NA,NA,NA,3
kh1,vt3,73,1,1,1,0.8798,NA,NA,NA,NA,NA,6
kh1,vt3,74,0,0,1,0.788,NA,NA,NA,NA,NA,6
kh1,vt3,75,1,1,1,0.9453,NA,NA,NA,NA,NA,16
kh1,vt3,76,1,1,1,0.7995,NA,NA,NA,NA,NA,16
kh1,vt3,77,1,1,1,0.8378,NA,NA,NA,NA,NA,12
kh1,vt3,78,0,0,1,0.8226,NA,NA,NA,NA,NA,6
kh1,vt3,79,1,1,1,0.8245,NA,NA,NA,NA,NA,16
kh1,vt3,80,1,1,1,0.9888,NA,NA,NA,NA,NA,12
kh1,vt3,81,1,1,1,0.8663,NA,NA,NA,NA,NA,16
kh1,vt3,82,0,0,1,0.8102,NA,NA,NA,NA,NA,12
kh1,vt3,83,1,1,1,1.0767,NA,NA,NA,NA,NA,20
kh1,vt3,84,0,0,1,0.7623,NA,NA,NA,NA,NA,16
kh1,vt3,85,0,0,1,0.804,NA,NA,NA,NA,NA,16
kh1,vt3,86,0,0,1,0.7906,NA,NA,NA,NA,NA,16
kh1,vt3,87,0,0,1,0.798,NA,NA,NA,NA,NA,20
kh1,vt3,88,1,1,1,0.9765,NA,NA,NA,NA,NA,12
kh1,vt3,89,0,0,1,0.8078,NA,NA,NA,NA,NA,12
kh1,vt3,90,0,0,1,0.7728,NA,NA,NA,NA,NA,3
kh1,vt3,91,1,0,0,1.3866,NA,NA,NA,NA,NA,16
kh1,vt3,92,1,1,1,0.776,NA,NA,NA,NA,NA,16
kh1,vt3,93,1,1,1,0.8106,NA,NA,NA,NA,NA,12
kh1,vt3,94,1,1,1,0.7995,NA,NA,NA,NA,NA,12
kh1,vt3,95,1,1,1,0.7746,NA,NA,NA,NA,NA,6
kh1,vt3,96,0,0,1,0.7951,NA,NA,NA,NA,NA,3
kh1,vt3,97,0,0,1,1.0332,NA,NA,NA,NA,NA,6
kh1,vt3,98,1,1,1,0.842,NA,NA,NA,NA,NA,6
kh1,vt3,99,0,0,1,0.7812,NA,NA,NA,NA,NA,16
kh1,vt3,100,1,1,1,0.861,NA,NA,NA,NA,NA,16
kh1,vt4,1,0,0,1,3.3576,NA,NA,NA,NA,NA,20
kh1,vt4,2,0,0,1,1.9681,NA,NA,NA,NA,NA,6
kh1,vt4,3,1,1,1,1.2638,NA,NA,NA,NA,NA,3
kh1,vt4,4,0,0,1,1.441,NA,NA,NA,NA,NA,16
kh1,vt4,5,1,1,1,1.3787,NA,NA,NA,NA,NA,12
kh1,vt4,6,0,0,1,1.5111,NA,NA,NA,NA,NA,16
kh1,vt4,7,1,0,0,1.7772,NA,NA,NA,NA,NA,20
kh1,vt4,8,1,1,1,1.3752,NA,NA,NA,NA,NA,3
kh1,vt4,9,1,1,1,1.4028,NA,NA,NA,NA,NA,3
kh1,vt4,10,1,1,1,1.4324,NA,NA,NA,NA,NA,12
kh1,vt4,11,1,1,1,1.4051,NA,NA,NA,NA,NA,12
kh1,vt4,12,0,0,1,1.2731,NA,NA,NA,NA,NA,12
kh1,vt4,13,0,0,1,1.3783,NA,NA,NA,NA,NA,3
kh1,vt4,14,0,0,1,1.4022,NA,NA,NA,NA,NA,16
kh1,vt4,15,1,1,1,1.8182,NA,NA,NA,NA,NA,12
kh1,vt4,16,0,0,1,1.2198,NA,NA,NA,NA,NA,3
kh1,vt4,17,1,1,1,1.5567,NA,NA,NA,NA,NA,3
kh1,vt4,18,0,0,1,1.3065,NA,NA,NA,NA,NA,3
kh1,vt4,19,0,0,1,1.7095,NA,NA,NA,NA,NA,12
kh1,vt4,20,1,1,1,1.2645,NA,NA,NA,NA,NA,6
kh1,vt4,21,1,1,1,1.4951,NA,NA,NA,NA,NA,16
kh1,vt4,22,1,1,1,1.4569,NA,NA,NA,NA,NA,12
kh1,vt4,23,0,0,1,1.2423,NA,NA,NA,NA,NA,20
kh1,vt4,24,1,1,1,1.4076,NA,NA,NA,NA,NA,3
kh1,vt4,25,0,0,1,1.1764,NA,NA,NA,NA,NA,3
kh1,vt4,26,0,0,1,1.8026,NA,NA,NA,NA,NA,20
kh1,vt4,27,1,1,1,1.3954,NA,NA,NA,NA,NA,6
kh1,vt4,28,0,0,1,1.2462,NA,NA,NA,NA,NA,6
kh1,vt4,29,0,0,1,1.1881,NA,NA,NA,NA,NA,6
kh1,vt4,30,0,0,1,1.5418,NA,NA,NA,NA,NA,16
kh1,vt4,31,0,0,1,1.2848,NA,NA,NA,NA,NA,6
kh1,vt4,32,0,0,1,1.322,NA,NA,NA,NA,NA,20
kh1,vt4,33,1,1,1,1.307,NA,NA,NA,NA,NA,12
kh1,vt4,34,0,0,1,1.2271,NA,NA,NA,NA,NA,6
kh1,vt4,35,0,0,1,1.3566,NA,NA,NA,NA,NA,6
kh1,vt4,36,1,1,1,1.3788,NA,NA,NA,NA,NA,6
kh1,vt4,37,0,0,1,1.3989,NA,NA,NA,NA,NA,6
kh1,vt4,38,1,1,1,1.3344,NA,NA,NA,NA,NA,16
kh1,vt4,39,1,0,0,1.6071,NA,NA,NA,NA,NA,20
kh1,vt4,40,1,0,0,1.4848,NA,NA,NA,NA,NA,20
kh1,vt4,41,0,0,1,1.2495,NA,NA,NA,NA,NA,3
kh1,vt4,42,1,1,1,1.3253,NA,NA,NA,NA,NA,12
kh1,vt4,43,1,1,1,1.4432,NA,NA,NA,NA,NA,12
kh1,vt4,44,0,0,1,1.5598,NA,NA,NA,NA,NA,20
kh1,vt4,45,0,0,1,1.5389,NA,NA,NA,NA,NA,20
kh1,vt4,46,0,0,1,1.4137,NA,NA,NA,NA,NA,12
kh1,vt4,47,1,1,1,1.4036,NA,NA,NA,NA,NA,6
kh1,vt4,48,1,1,1,1.43,NA,NA,NA,NA,NA,16
kh1,vt4,49,1,1,1,1.4801,NA,NA,NA,NA,NA,6
kh1,vt4,50,1,1,1,1.4275,NA,NA,NA,NA,NA,16
kh1,vt4,51,1,0,0,3.3101,NA,NA,NA,NA,NA,12
kh1,vt4,52,0,0,1,1.6013,NA,NA,NA,NA,NA,20
kh1,vt4,53,0,0,1,2.3166,NA,NA,NA,NA,NA,12
kh1,vt4,54,0,0,1,1.3833,NA,NA,NA,NA,NA,6
kh1,vt4,55,0,0,1,1.3403,NA,NA,NA,NA,NA,3
kh1,vt4,56,1,0,0,1.6675,NA,NA,NA,NA,NA,20
kh1,vt4,57,0,0,1,1.3496,NA,NA,NA,NA,NA,12
kh1,vt4,58,0,0,1,1.3942,NA,NA,NA,NA,NA,16
kh1,vt4,59,0,0,1,1.3676,NA,NA,NA,NA,NA,3
kh1,vt4,60,0,0,1,2.4356,NA,NA,NA,NA,NA,16
kh1,vt4,61,0,0,1,1.3955,NA,NA,NA,NA,NA,16
kh1,vt4,62,1,1,1,1.4192,NA,NA,NA,NA,NA,3
kh1,vt4,63,1,1,1,1.3358,NA,NA,NA,NA,NA,3
kh1,vt4,64,1,1,1,1.4047,NA,NA,NA,NA,NA,16
kh1,vt4,65,1,0,0,2.1431,NA,NA,NA,NA,NA,20
kh1,vt4,66,1,1,1,1.4528,NA,NA,NA,NA,NA,16
kh1,vt4,67,1,1,1,1.3755,NA,NA,NA,NA,NA,16
kh1,vt4,68,0,0,1,1.3382,NA,NA,NA,NA,NA,3
kh1,vt4,69,1,1,1,1.5651,NA,NA,NA,NA,NA,16
kh1,vt4,70,0,0,1,1.2393,NA,NA,NA,NA,NA,20
kh1,vt4,71,0,0,1,1.3628,NA,NA,NA,NA,NA,20
kh1,vt4,72,1,1,1,1.2732,NA,NA,NA,NA,NA,16
kh1,vt4,73,0,0,1,1.5376,NA,NA,NA,NA,NA,16
kh1,vt4,74,0,0,1,1.6311,NA,NA,NA,NA,NA,20
kh1,vt4,75,1,1,1,1.9439,NA,NA,NA,NA,NA,12
kh1,vt4,76,0,0,1,1.3405,NA,NA,NA,NA,NA,16
kh1,vt4,77,1,0,0,1.5715,NA,NA,NA,NA,NA,16
kh1,vt4,78,1,1,1,1.7676,NA,NA,NA,NA,NA,6
kh1,vt4,79,1,1,1,1.2425,NA,NA,NA,NA,NA,3
kh1,vt4,80,1,0,0,1.2995,NA,NA,NA,NA,NA,20
kh1,vt4,81,0,0,1,1.2292,NA,NA,NA,NA,NA,3
kh1,vt4,82,0,0,1,1.2044,NA,NA,NA,NA,NA,16
kh1,vt4,83,0,0,1,1.2636,NA,NA,NA,NA,NA,6
kh1,vt4,84,0,0,1,1.1939,NA,NA,NA,NA,NA,16
kh1,vt4,85,0,0,1,1.2506,NA,NA,NA,NA,NA,16
kh1,vt4,86,0,0,1,1.1208,NA,NA,NA,NA,NA,20
kh1,vt4,87,1,1,1,1.0739,NA,NA,NA,NA,NA,16
kh1,vt4,88,1,1,1,1.2212,NA,NA,NA,NA,NA,12
kh1,vt4,89,1,1,1,1.164,NA,NA,NA,NA,NA,3
kh1,vt4,90,1,0,0,1.3942,NA,NA,NA,NA,NA,20
kh1,vt4,91,1,1,1,1.3759,NA,NA,NA,NA,NA,3
kh1,vt4,92,0,0,1,1.1382,NA,NA,NA,NA,NA,12
kh1,vt4,93,1,0,0,2.7314,NA,NA,NA,NA,NA,6
kh1,vt4,94,1,1,1,1.6596,NA,NA,NA,NA,NA,16
kh1,vt4,95,1,1,1,1.4222,NA,NA,NA,NA,NA,6
kh1,vt4,96,0,0,1,3.3913,NA,NA,NA,NA,NA,20
kh1,vt4,97,1,0,0,1.621,NA,NA,NA,NA,NA,20
kh1,vt4,98,0,0,1,1.3462,NA,NA,NA,NA,NA,20
kh1,vt4,99,1,1,1,1.373,NA,NA,NA,NA,NA,6
kh1,vt4,100,0,0,1,1.1721,NA,NA,NA,NA,NA,3
kh1,vt5,1,0,0,1,1.9482,NA,NA,NA,NA,NA,6
kh1,vt5,2,1,0,0,2.2465,NA,NA,NA,NA,NA,20
kh1,vt5,3,0,0,1,1.2758,NA,NA,NA,NA,NA,12
kh1,vt5,4,1,1,1,1.5991,NA,NA,NA,NA,NA,12
kh1,vt5,5,0,0,1,1.2452,NA,NA,NA,NA,NA,3
kh1,vt5,6,1,0,0,3.1115,NA,NA,NA,NA,NA,20
kh1,vt5,7,0,0,1,1.334,NA,NA,NA,NA,NA,20
kh1,vt5,8,1,1,1,1.2363,NA,NA,NA,NA,NA,6
kh1,vt5,9,1,1,1,1.3726,NA,NA,NA,NA,NA,12
kh1,vt5,10,1,1,1,1.3691,NA,NA,NA,NA,NA,6
kh1,vt5,11,1,1,1,1.318,NA,NA,NA,NA,NA,3
kh1,vt5,12,0,0,1,1.3022,NA,NA,NA,NA,NA,12
kh1,vt5,13,0,0,1,1.3413,NA,NA,NA,NA,NA,6
kh1,vt5,14,1,1,1,1.4143,NA,NA,NA,NA,NA,20
kh1,vt5,15,1,0,0,1.2546,NA,NA,NA,NA,NA,20
kh1,vt5,16,0,0,1,1.2853,NA,NA,NA,NA,NA,20
kh1,vt5,17,1,1,1,1.2411,NA,NA,NA,NA,NA,6
kh1,vt5,18,1,1,1,1.3305,NA,NA,NA,NA,NA,12
kh1,vt5,19,1,1,1,1.3813,NA,NA,NA,NA,NA,6
kh1,vt5,20,0,0,1,1.6692,NA,NA,NA,NA,NA,20
kh1,vt5,21,0,0,1,1.41,NA,NA,NA,NA,NA,20
kh1,vt5,22,0,0,1,1.4468,NA,NA,NA,NA,NA,16
kh1,vt5,23,0,0,1,1.7777,NA,NA,NA,NA,NA,20
kh1,vt5,24,1,1,1,1.5472,NA,NA,NA,NA,NA,6
kh1,vt5,25,0,0,1,3.0595,NA,NA,NA,NA,NA,20
kh1,vt5,26,0,0,1,1.26,NA,NA,NA,NA,NA,3
kh1,vt5,27,1,1,1,1.3402,NA,NA,NA,NA,NA,16
kh1,vt5,28,0,0,1,1.2051,NA,NA,NA,NA,NA,12
kh1,vt5,29,0,0,1,1.4896,NA,NA,NA,NA,NA,20
kh1,vt5,30,0,0,1,1.1728,NA,NA,NA,NA,NA,12
kh1,vt5,31,0,0,1,1.3724,NA,NA,NA,NA,NA,20
kh1,vt5,32,1,1,1,1.4234,NA,NA,NA,NA,NA,20
kh1,vt5,33,1,1,1,1.2383,NA,NA,NA,NA,NA,12
kh1,vt5,34,0,0,1,1.5245,NA,NA,NA,NA,NA,20
kh1,vt5,35,1,1,1,2.6222,NA,NA,NA,NA,NA,20
kh1,vt5,36,1,1,1,1.2049,NA,NA,NA,NA,NA,20
kh1,vt5,37,1,1,1,1.9109,NA,NA,NA,NA,NA,16
kh1,vt5,38,0,0,1,1.0934,NA,NA,NA,NA,NA,3
kh1,vt5,39,0,0,1,1.2818,NA,NA,NA,NA,NA,20
kh1,vt5,40,0,0,1,1.369,NA,NA,NA,NA,NA,20
kh1,vt5,41,1,1,1,1.2398,NA,NA,NA,NA,NA,3
kh1,vt5,42,1,1,1,1.4248,NA,NA,NA,NA,NA,12
kh1,vt5,43,1,1,1,1.2202,NA,NA,NA,NA,NA,6
kh1,vt5,44,0,0,1,1.1273,NA,NA,NA,NA,NA,3
kh1,vt5,45,0,0,1,1.2674,NA,NA,NA,NA,NA,20
kh1,vt5,46,0,0,1,1.1469,NA,NA,NA,NA,NA,6
kh1,vt5,47,0,0,1,1.1483,NA,NA,NA,NA,NA,12
kh1,vt5,48,0,0,1,1.1664,NA,NA,NA,NA,NA,3
kh1,vt5,49,0,0,1,1.4283,NA,NA,NA,NA,NA,20
kh1,vt5,50,0,0,1,1.1512,NA,NA,NA,NA,NA,3
kh1,vt5,51,0,0,1,1.0887,NA,NA,NA,NA,NA,12
kh1,vt5,52,0,0,1,1.4074,NA,NA,NA,NA,NA,20
kh1,vt5,53,1,1,1,1.1585,NA,NA,NA,NA,NA,6
kh1,vt5,54,1,1,1,1.304,NA,NA,NA,NA,NA,16
kh1,vt5,55,1,1,1,1.4049,NA,NA,NA,NA,NA,3
kh1,vt5,56,1,1,1,1.3259,NA,NA,NA,NA,NA,6
kh1,vt5,57,0,0,1,1.2971,NA,NA,NA,NA,NA,16
kh1,vt5,58,1,1,1,2.2055,NA,NA,NA,NA,NA,16
kh1,vt5,59,0,0,1,1.1417,NA,NA,NA,NA,NA,12
kh1,vt5,60,1,0,0,2.3276,NA,NA,NA,NA,NA,16
kh1,vt5,61,1,1,1,1.1749,NA,NA,NA,NA,NA,12
kh1,vt5,62,1,1,1,1.2089,NA,NA,NA,NA,NA,6
kh1,vt5,63,1,1,1,1.4356,NA,NA,NA,NA,NA,12
kh1,vt5,64,1,1,1,1.1856,NA,NA,NA,NA,NA,6
kh1,vt5,65,0,0,1,1.0316,NA,NA,NA,NA,NA,12
kh1,vt5,66,0,0,1,1.064,NA,NA,NA,NA,NA,6
kh1,vt5,67,1,1,1,1.1621,NA,NA,NA,NA,NA,20
kh1,vt5,68,0,0,1,1.2166,NA,NA,NA,NA,NA,3
kh1,vt5,69,0,0,1,1.312,NA,NA,NA,NA,NA,12
kh1,vt5,70,0,0,1,1.5762,NA,NA,NA,NA,NA,20
kh1,vt5,71,1,0,0,1.6036,NA,NA,NA,NA,NA,16
kh1,vt5,72,0,0,1,1.4672,NA,NA,NA,NA,NA,16
kh1,vt5,73,1,1,1,1.1587,NA,NA,NA,NA,NA,12
kh1,vt5,74,1,1,1,1.3454,NA,NA,NA,NA,NA,6
kh1,vt5,75,1,1,1,1.2444,NA,NA,NA,NA,NA,3
kh1,vt5,76,1,1,1,1.0979,NA,NA,NA,NA,NA,16
kh1,vt5,77,1,1,1,1.2128,NA,NA,NA,NA,NA,16
kh1,vt5,78,0,0,1,1.2603,NA,NA,NA,NA,NA,12
kh1,vt5,79,1,1,1,1.2056,NA,NA,NA,NA,NA,20
kh1,vt5,80,0,0,1,1.3958,NA,NA,NA,NA,NA,16
kh1,vt5,81,1,1,1,1.3569,NA,NA,NA,NA,NA,12
kh1,vt5,82,0,0,1,1.5465,NA,NA,NA,NA,NA,20
kh1,vt5,83,1,0,0,2.0227,NA,NA,NA,NA,NA,16
kh1,vt5,84,0,0,1,1.1624,NA,NA,NA,NA,NA,20
kh1,vt5,85,0,0,1,1.3785,NA,NA,NA,NA,NA,20
kh1,vt5,86,0,0,1,1.4602,NA,NA,NA,NA,NA,16
kh1,vt5,87,1,1,1,1.2006,NA,NA,NA,NA,NA,6
kh1,vt5,88,0,0,1,1.5347,NA,NA,NA,NA,NA,20
kh1,vt5,89,1,1,1,1.3218,NA,NA,NA,NA,NA,12
kh1,vt5,90,0,0,1,1.1222,NA,NA,NA,NA,NA,20
kh1,vt5,91,1,1,1,1.3267,NA,NA,NA,NA,NA,3
kh1,vt5,92,1,1,1,1.3661,NA,NA,NA,NA,NA,12
kh1,vt5,93,0,0,1,1.0869,NA,NA,NA,NA,NA,6
kh1,vt5,94,1,1,1,1.1513,NA,NA,NA,NA,NA,16
kh1,vt5,95,0,0,1,1.1189,NA,NA,NA,NA,NA,3
kh1,vt5,96,1,1,1,1.1111,NA,NA,NA,NA,NA,6
kh1,vt5,97,0,0,1,1.0846,NA,NA,NA,NA,NA,12
kh1,vt5,98,0,0,1,1.0658,NA,NA,NA,NA,NA,12
kh1,vt5,99,1,0,0,1.1827,NA,NA,NA,NA,NA,20
kh1,vt5,100,1,1,1,1.2814,NA,NA,NA,NA,NA,16
kh1,vt5,101,NA,NA,NA,NA,NA,NA,NA,NA,NA,NA
kh1,vt5,102,NA,NA,NA,NA,NA,NA,NA,NA,NA,NA
kh1,vt5,103,NA,NA,NA,NA,NA,NA,NA,NA,NA,NA
kh1,vt5,104,NA,NA,NA,NA,NA,NA,NA,NA,NA,NA
kh1,vt5,105,NA,NA,NA,NA,NA,NA,NA,NA,NA,NA
kh1,vt5,106,NA,NA,NA,NA,NA,NA,NA,NA,NA,NA
kh1,vt5,107,NA,NA,NA,NA,NA,NA,NA,NA,NA,NA
kh1,vt5,108,NA,NA,NA,NA,NA,NA,NA,NA,NA,NA
kh1,vt5,109,NA,NA,NA,NA,NA,NA,NA,NA,NA,NA
kh1,vt5,110,NA,NA,NA,NA,NA,NA,NA,NA,NA,NA
kh1,vt5,111,NA,NA,NA,NA,NA,NA,NA,NA,NA,NA
kh1,vt5,112,NA,NA,NA,NA,NA,NA,NA,NA,NA,NA
kh1,vt5,113,NA,NA,NA,NA,NA,NA,NA,NA,NA,NA
kh1,vt5,114,NA,NA,NA,NA,NA,NA,NA,NA,NA,NA
kh1,vt5,115,NA,NA,NA,NA,NA,NA,NA,NA,NA,NA
kh1,vt5,116,NA,NA,NA,NA,NA,NA,NA,NA,NA,NA
kh1,vt5,117,NA,NA,NA,NA,NA,NA,NA,NA,NA,NA
kh1,vt5,118,NA,NA,NA,NA,NA,NA,NA,NA,NA,NA
kh1,vt5,119,NA,NA,NA,NA,NA,NA,NA,NA,NA,NA
kh1,vt5,120,NA,NA,NA,NA,NA,NA,NA,NA,NA,NA
kh1,vt5,121,NA,NA,NA,NA,NA,NA,NA,NA,NA,NA
kh1,vt5,122,NA,NA,NA,NA,NA,NA,NA,NA,NA,NA
kh1,vt5,123,NA,NA,NA,NA,NA,NA,NA,NA,NA,NA
kh1,vt5,124,NA,NA,NA,NA,NA,NA,NA,NA,NA,NA
kh1,vt5,125,NA,NA,NA,NA,NA,NA,NA,NA,NA,NA
kh1,vt5,126,NA,NA,NA,NA,NA,NA,NA,NA,NA,NA
kh1,vt5,127,NA,NA,NA,NA,NA,NA,NA,NA,NA,NA
kh1,vt5,128,NA,NA,NA,NA,NA,NA,NA,NA,NA,NA
kh1,vt5,129,NA,NA,NA,NA,NA,NA,NA,NA,NA,NA
kh1,vt5,130,NA,NA,NA,NA,NA,NA,NA,NA,NA,NA
kh1,vt5,131,NA,NA,NA,NA,NA,NA,NA,NA,NA,NA
kh1,vt5,132,NA,NA,NA,NA,NA,NA,NA,NA,NA,NA
kh1,vt5,133,NA,NA,NA,NA,NA,NA,NA,NA,NA,NA
kh1,vt5,134,NA,NA,NA,NA,NA,NA,NA,NA,NA,NA
kh1,vt5,135,NA,NA,NA,NA,NA,NA,NA,NA,NA,NA
kh1,vt5,136,NA,NA,NA,NA,NA,NA,NA,NA,NA,NA
kh1,vt5,137,NA,NA,NA,NA,NA,NA,NA,NA,NA,NA
kh1,vt5,138,NA,NA,NA,NA,NA,NA,NA,NA,NA,NA
kh1,vt5,139,NA,NA,NA,NA,NA,NA,NA,NA,NA,NA
kh1,vt5,140,NA,NA,NA,NA,NA,NA,NA,NA,NA,NA
kh1,vt5,141,NA,NA,NA,NA,NA,NA,NA,NA,NA,NA
kh1,vt5,142,NA,NA,NA,NA,NA,NA,NA,NA,NA,NA
kh1,vt5,143,NA,NA,NA,NA,NA,NA,NA,NA,NA,NA
kh1,vt5,144,NA,NA,NA,NA,NA,NA,NA,NA,NA,NA
kh1,vt5,145,NA,NA,NA,NA,NA,NA,NA,NA,NA,NA
kh1,vt5,146,NA,NA,NA,NA,NA,NA,NA,NA,NA,NA
kh1,vt5,147,NA,NA,NA,NA,NA,NA,NA,NA,NA,NA
kh1,vt5,148,NA,NA,NA,NA,NA,NA,NA,NA,NA,NA
kh1,vt5,149,NA,NA,NA,NA,NA,NA,NA,NA,NA,NA
kh1,vt5,150,NA,NA,NA,NA,NA,NA,NA,NA,NA,NA
kh1,vt5,151,NA,NA,NA,NA,NA,NA,NA,NA,NA,NA
kh1,vt5,152,NA,NA,NA,NA,NA,NA,NA,NA,NA,NA
kh1,vt5,153,NA,NA,NA,NA,NA,NA,NA,NA,NA,NA
kh1,vt5,154,NA,NA,NA,NA,NA,NA,NA,NA,NA,NA
kh1,vt5,155,NA,NA,NA,NA,NA,NA,NA,NA,NA,NA
kh1,vt5,156,NA,NA,NA,NA,NA,NA,NA,NA,NA,NA
kh1,vt5,157,NA,NA,NA,NA,NA,NA,NA,NA,NA,NA
kh1,vt5,158,NA,NA,NA,NA,NA,NA,NA,NA,NA,NA
kh1,vt5,159,NA,NA,NA,NA,NA,NA,NA,NA,NA,NA
kh1,vt5,160,NA,NA,NA,NA,NA,NA,NA,NA,NA,NA
kh1,vt5,161,NA,NA,NA,NA,NA,NA,NA,NA,NA,NA
kh1,vt5,162,NA,NA,NA,NA,NA,NA,NA,NA,NA,NA
kh1,vt5,163,NA,NA,NA,NA,NA,NA,NA,NA,NA,NA
kh1,vt5,164,NA,NA,NA,NA,NA,NA,NA,NA,NA,NA
kh1,vt5,165,NA,NA,NA,NA,NA,NA,NA,NA,NA,NA
kh1,vt5,166,NA,NA,NA,NA,NA,NA,NA,NA,NA,NA
kh1,vt5,167,NA,NA,NA,NA,NA,NA,NA,NA,NA,NA
kh1,vt5,168,NA,NA,NA,NA,NA,NA,NA,NA,NA,NA
kh1,vt5,169,NA,NA,NA,NA,NA,NA,NA,NA,NA,NA
kh1,vt5,170,NA,NA,NA,NA,NA,NA,NA,NA,NA,NA
kh1,vt5,171,NA,NA,NA,NA,NA,NA,NA,NA,NA,NA
kh1,vt5,172,NA,NA,NA,NA,NA,NA,NA,NA,NA,NA
kh1,vt5,173,NA,NA,NA,NA,NA,NA,NA,NA,NA,NA
kh1,vt5,174,NA,NA,NA,NA,NA,NA,NA,NA,NA,NA
kh1,vt5,175,NA,NA,NA,NA,NA,NA,NA,NA,NA,NA
kh1,vt5,176,NA,NA,NA,NA,NA,NA,NA,NA,NA,NA
kh1,vt5,177,NA,NA,NA,NA,NA,NA,NA,NA,NA,NA
kh1,vt5,178,NA,NA,NA,NA,NA,NA,NA,NA,NA,NA
kh1,vt5,179,NA,NA,NA,NA,NA,NA,NA,NA,NA,NA
kh1,vt5,180,NA,NA,NA,NA,NA,NA,NA,NA,NA,NA
kh1,vt5,181,NA,NA,NA,NA,NA,NA,NA,NA,NA,NA
kh1,vt5,182,NA,NA,NA,NA,NA,NA,NA,NA,NA,NA
kh1,vt5,183,NA,NA,NA,NA,NA,NA,NA,NA,NA,NA
kh1,vt5,184,NA,NA,NA,NA,NA,NA,NA,NA,NA,NA
kh1,vt5,185,NA,NA,NA,NA,NA,NA,NA,NA,NA,NA
kh1,vt5,186,NA,NA,NA,NA,NA,NA,NA,NA,NA,NA
kh1,vt5,187,NA,NA,NA,NA,NA,NA,NA,NA,NA,NA
kh1,vt5,188,NA,NA,NA,NA,NA,NA,NA,NA,NA,NA
kh1,vt5,189,NA,NA,NA,NA,NA,NA,NA,NA,NA,NA
kh1,vt5,190,NA,NA,NA,NA,NA,NA,NA,NA,NA,NA
kh1,vt5,191,NA,NA,NA,NA,NA,NA,NA,NA,NA,NA
kh1,vt5,192,NA,NA,NA,NA,NA,NA,NA,NA,NA,NA
kh1,vt5,193,NA,NA,NA,NA,NA,NA,NA,NA,NA,NA
kh1,vt5,194,NA,NA,NA,NA,NA,NA,NA,NA,NA,NA
kh1,vt5,195,NA,NA,NA,NA,NA,NA,NA,NA,NA,NA
kh1,vt5,196,NA,NA,NA,NA,NA,NA,NA,NA,NA,NA
kh1,vt5,197,NA,NA,NA,NA,NA,NA,NA,NA,NA,NA
kh1,vt5,198,NA,NA,NA,NA,NA,NA,NA,NA,NA,NA
kh1,vt5,199,NA,NA,NA,NA,NA,NA,NA,NA,NA,NA
kh1,vt5,200,NA,NA,NA,NA,NA,NA,NA,NA,NA,NA
kh1,vt5,201,NA,NA,NA,NA,NA,NA,NA,NA,NA,NA
kh1,vt5,202,NA,NA,NA,NA,NA,NA,NA,NA,NA,NA
kh1,vt5,203,NA,NA,NA,NA,NA,NA,NA,NA,NA,NA
kh1,vt5,204,NA,NA,NA,NA,NA,NA,NA,NA,NA,NA
kh1,vt5,205,NA,NA,NA,NA,NA,NA,NA,NA,NA,NA
kh1,vt5,206,NA,NA,NA,NA,NA,NA,NA,NA,NA,NA
kh1,vt5,207,NA,NA,NA,NA,NA,NA,NA,NA,NA,NA
kh1,vt5,208,NA,NA,NA,NA,NA,NA,NA,NA,NA,NA
kh1,vt5,209,NA,NA,NA,NA,NA,NA,NA,NA,NA,NA
kh1,vt5,210,NA,NA,NA,NA,NA,NA,NA,NA,NA,NA
kh1,vt5,211,NA,NA,NA,NA,NA,NA,NA,NA,NA,NA
kh1,vt5,212,NA,NA,NA,NA,NA,NA,NA,NA,NA,NA
kh1,vt5,213,NA,NA,NA,NA,NA,NA,NA,NA,NA,NA
kh1,vt5,214,NA,NA,NA,NA,NA,NA,NA,NA,NA,NA
kh1,vt5,215,NA,NA,NA,NA,NA,NA,NA,NA,NA,NA
kh1,vt5,216,NA,NA,NA,NA,NA,NA,NA,NA,NA,NA
kh1,vt5,217,NA,NA,NA,NA,NA,NA,NA,NA,NA,NA
kh1,vt5,218,NA,NA,NA,NA,NA,NA,NA,NA,NA,NA
kh1,vt5,219,NA,NA,NA,NA,NA,NA,NA,NA,NA,NA
kh1,vt5,220,NA,NA,NA,NA,NA,NA,NA,NA,NA,NA
kh1,vt5,221,NA,NA,NA,NA,NA,NA,NA,NA,NA,NA
kh1,vt5,222,NA,NA,NA,NA,NA,NA,NA,NA,NA,NA
kh1,vt5,223,NA,NA,NA,NA,NA,NA,NA,NA,NA,NA
kh1,vt5,224,NA,NA,NA,NA,NA,NA,NA,NA,NA,NA
kh1,vt5,225,NA,NA,NA,NA,NA,NA,NA,NA,NA,NA
kh1,vt5,226,NA,NA,NA,NA,NA,NA,NA,NA,NA,NA
kh1,vt5,227,NA,NA,NA,NA,NA,NA,NA,NA,NA,NA
kh1,vt5,228,NA,NA,NA,NA,NA,NA,NA,NA,NA,NA
kh1,vt5,229,NA,NA,NA,NA,NA,NA,NA,NA,NA,NA
kh1,vt5,230,NA,NA,NA,NA,NA,NA,NA,NA,NA,NA
kh1,vt5,231,NA,NA,NA,NA,NA,NA,NA,NA,NA,NA
kh1,vt5,232,NA,NA,NA,NA,NA,NA,NA,NA,NA,NA
kh1,vt5,233,NA,NA,NA,NA,NA,NA,NA,NA,NA,NA
kh1,vt5,234,NA,NA,NA,NA,NA,NA,NA,NA,NA,NA
kh1,vt5,235,NA,NA,NA,NA,NA,NA,NA,NA,NA,NA
kh1,vt5,236,NA,NA,NA,NA,NA,NA,NA,NA,NA,NA
kh1,vt5,237,NA,NA,NA,NA,NA,NA,NA,NA,NA,NA
kh1,vt5,238,NA,NA,NA,NA,NA,NA,NA,NA,NA,NA
kh1,vt5,239,NA,NA,NA,NA,NA,NA,NA,NA,NA,NA
kh1,vt5,240,NA,NA,NA,NA,NA,NA,NA,NA,NA,NA
kh1,vt5,241,NA,NA,NA,NA,NA,NA,NA,NA,NA,NA
kh1,vt5,242,NA,NA,NA,NA,NA,NA,NA,NA,NA,NA
kh1,vt5,243,NA,NA,NA,NA,NA,NA,NA,NA,NA,NA
kh1,vt5,244,NA,NA,NA,NA,NA,NA,NA,NA,NA,NA
kh1,vt5,245,NA,NA,NA,NA,NA,NA,NA,NA,NA,NA
kh1,vt5,246,NA,NA,NA,NA,NA,NA,NA,NA,NA,NA
kh1,vt5,247,NA,NA,NA,NA,NA,NA,NA,NA,NA,NA
kh1,vt5,248,NA,NA,NA,NA,NA,NA,NA,NA,NA,NA
kh1,vt5,249,NA,NA,NA,NA,NA,NA,NA,NA,NA,NA
kh1,vt5,250,NA,NA,NA,NA,NA,NA,NA,NA,NA,NA
kh1,vt5,251,NA,NA,NA,NA,NA,NA,NA,NA,NA,NA
kh1,vt5,252,NA,NA,NA,NA,NA,NA,NA,NA,NA,NA
kh1,vt5,253,NA,NA,NA,NA,NA,NA,NA,NA,NA,NA
kh1,vt5,254,NA,NA,NA,NA,NA,NA,NA,NA,NA,NA
kh1,vt5,255,NA,NA,NA,NA,NA,NA,NA,NA,NA,NA
kh1,vt5,256,NA,NA,NA,NA,NA,NA,NA,NA,NA,NA
kh1,vt5,257,NA,NA,NA,NA,NA,NA,NA,NA,NA,NA
kh1,vt5,258,NA,NA,NA,NA,NA,NA,NA,NA,NA,NA
kh1,vt5,259,NA,NA,NA,NA,NA,NA,NA,NA,NA,NA
kh1,vt5,260,NA,NA,NA,NA,NA,NA,NA,NA,NA,NA
kh1,vt5,261,NA,NA,NA,NA,NA,NA,NA,NA,NA,NA
kh1,vt5,262,NA,NA,NA,NA,NA,NA,NA,NA,NA,NA
kh1,vt5,263,NA,NA,NA,NA,NA,NA,NA,NA,NA,NA
kh1,vt5,264,NA,NA,NA,NA,NA,NA,NA,NA,NA,NA
kh1,vt5,265,NA,NA,NA,NA,NA,NA,NA,NA,NA,NA
kh1,vt5,266,NA,NA,NA,NA,NA,NA,NA,NA,NA,NA
kh1,vt5,267,NA,NA,NA,NA,NA,NA,NA,NA,NA,NA
kh1,vt5,268,NA,NA,NA,NA,NA,NA,NA,NA,NA,NA
kh1,vt5,269,NA,NA,NA,NA,NA,NA,NA,NA,NA,NA
kh1,vt5,270,NA,NA,NA,NA,NA,NA,NA,NA,NA,NA
kh1,vt5,271,NA,NA,NA,NA,NA,NA,NA,NA,NA,NA
kh1,vt5,272,NA,NA,NA,NA,NA,NA,NA,NA,NA,NA
kh1,vt5,273,NA,NA,NA,NA,NA,NA,NA,NA,NA,NA
kh1,vt5,274,NA,NA,NA,NA,NA,NA,NA,NA,NA,NA
kh1,vt5,275,NA,NA,NA,NA,NA,NA,NA,NA,NA,NA
kh1,vt5,276,NA,NA,NA,NA,NA,NA,NA,NA,NA,NA
kh1,vt5,277,NA,NA,NA,NA,NA,NA,NA,NA,NA,NA
kh1,vt5,278,NA,NA,NA,NA,NA,NA,NA,NA,NA,NA
kh1,vt5,279,NA,NA,NA,NA,NA,NA,NA,NA,NA,NA
kh1,vt5,280,NA,NA,NA,NA,NA,NA,NA,NA,NA,NA
kh1,vt5,281,NA,NA,NA,NA,NA,NA,NA,NA,NA,NA
kh1,vt5,282,NA,NA,NA,NA,NA,NA,NA,NA,NA,NA
kh1,vt5,283,NA,NA,NA,NA,NA,NA,NA,NA,NA,NA
kh1,vt5,284,NA,NA,NA,NA,NA,NA,NA,NA,NA,NA
kh1,vt5,285,NA,NA,NA,NA,NA,NA,NA,NA,NA,NA
kh1,vt5,286,NA,NA,NA,NA,NA,NA,NA,NA,NA,NA
kh1,vt5,287,NA,NA,NA,NA,NA,NA,NA,NA,NA,NA
kh1,vt5,288,NA,NA,NA,NA,NA,NA,NA,NA,NA,NA
kh1,vt5,289,NA,NA,NA,NA,NA,NA,NA,NA,NA,NA
kh1,vt5,290,NA,NA,NA,NA,NA,NA,NA,NA,NA,NA
kh1,vt5,291,NA,NA,NA,NA,NA,NA,NA,NA,NA,NA
kh1,vt5,292,NA,NA,NA,NA,NA,NA,NA,NA,NA,NA
kh1,vt5,293,NA,NA,NA,NA,NA,NA,NA,NA,NA,NA
kh1,vt5,294,NA,NA,NA,NA,NA,NA,NA,NA,NA,NA
kh1,vt5,295,NA,NA,NA,NA,NA,NA,NA,NA,NA,NA
kh1,vt5,296,NA,NA,NA,NA,NA,NA,NA,NA,NA,NA
kh1,vt5,297,NA,NA,NA,NA,NA,NA,NA,NA,NA,NA
kh1,vt5,298,NA,NA,NA,NA,NA,NA,NA,NA,NA,NA
kh1,vt5,299,NA,NA,NA,NA,NA,NA,NA,NA,NA,NA
kh1,vt5,300,NA,NA,NA,NA,NA,NA,NA,NA,NA,NA
kh1,vt5,301,NA,NA,NA,NA,NA,NA,NA,NA,NA,NA
kh1,vt5,302,NA,NA,NA,NA,NA,NA,NA,NA,NA,NA
kh1,vt5,303,NA,NA,NA,NA,NA,NA,NA,NA,NA,NA
kh1,vt5,304,NA,NA,NA,NA,NA,NA,NA,NA,NA,NA
kh1,vt5,305,NA,NA,NA,NA,NA,NA,NA,NA,NA,NA
kh1,vt5,306,NA,NA,NA,NA,NA,NA,NA,NA,NA,NA
kh1,vt5,307,NA,NA,NA,NA,NA,NA,NA,NA,NA,NA
kh1,vt5,308,NA,NA,NA,NA,NA,NA,NA,NA,NA,NA
kh1,vt5,309,NA,NA,NA,NA,NA,NA,NA,NA,NA,NA
kh1,vt5,310,NA,NA,NA,NA,NA,NA,NA,NA,NA,NA
kh1,vt5,311,NA,NA,NA,NA,NA,NA,NA,NA,NA,NA
kh1,vt5,312,NA,NA,NA,NA,NA,NA,NA,NA,NA,NA
kh1,vt5,313,NA,NA,NA,NA,NA,NA,NA,NA,NA,NA
kh1,vt5,314,NA,NA,NA,NA,NA,NA,NA,NA,NA,NA
kh1,vt5,315,NA,NA,NA,NA,NA,NA,NA,NA,NA,NA
kh1,vt5,316,NA,NA,NA,NA,NA,NA,NA,NA,NA,NA
kh1,vt5,317,NA,NA,NA,NA,NA,NA,NA,NA,NA,NA
kh1,vt5,318,NA,NA,NA,NA,NA,NA,NA,NA,NA,NA
kh1,vt5,319,NA,NA,NA,NA,NA,NA,NA,NA,NA,NA
kh1,vt5,320,NA,NA,NA,NA,NA,NA,NA,NA,NA,NA
kh1,vt5,321,NA,NA,NA,NA,NA,NA,NA,NA,NA,NA
kh1,vt5,322,NA,NA,NA,NA,NA,NA,NA,NA,NA,NA
kh1,vt5,323,NA,NA,NA,NA,NA,NA,NA,NA,NA,NA
kh1,vt5,324,NA,NA,NA,NA,NA,NA,NA,NA,NA,NA
kh1,vt5,325,NA,NA,NA,NA,NA,NA,NA,NA,NA,NA
kh1,vt5,326,NA,NA,NA,NA,NA,NA,NA,NA,NA,NA
kh1,vt5,327,NA,NA,NA,NA,NA,NA,NA,NA,NA,NA
kh1,vt5,328,NA,NA,NA,NA,NA,NA,NA,NA,NA,NA
kh1,vt5,329,NA,NA,NA,NA,NA,NA,NA,NA,NA,NA
kh1,vt5,330,NA,NA,NA,NA,NA,NA,NA,NA,NA,NA
kh1,vt5,331,NA,NA,NA,NA,NA,NA,NA,NA,NA,NA
kh1,vt5,332,NA,NA,NA,NA,NA,NA,NA,NA,NA,NA
kh1,vt5,333,NA,NA,NA,NA,NA,NA,NA,NA,NA,NA
kh1,vt5,334,NA,NA,NA,NA,NA,NA,NA,NA,NA,NA
kh1,vt5,335,NA,NA,NA,NA,NA,NA,NA,NA,NA,NA
kh1,vt5,336,NA,NA,NA,NA,NA,NA,NA,NA,NA,NA
kh1,vt5,337,NA,NA,NA,NA,NA,NA,NA,NA,NA,NA
kh1,vt5,338,NA,NA,NA,NA,NA,NA,NA,NA,NA,NA
kh1,vt5,339,NA,NA,NA,NA,NA,NA,NA,NA,NA,NA
kh1,vt5,340,NA,NA,NA,NA,NA,NA,NA,NA,NA,NA
kh1,vt5,341,NA,NA,NA,NA,NA,NA,NA,NA,NA,NA
kh1,vt5,342,NA,NA,NA,NA,NA,NA,NA,NA,NA,NA
kh1,vt5,343,NA,NA,NA,NA,NA,NA,NA,NA,NA,NA
kh1,vt5,344,NA,NA,NA,NA,NA,NA,NA,NA,NA,NA
kh1,vt5,345,NA,NA,NA,NA,NA,NA,NA,NA,NA,NA
kh1,vt5,346,NA,NA,NA,NA,NA,NA,NA,NA,NA,NA
kh1,vt5,347,NA,NA,NA,NA,NA,NA,NA,NA,NA,NA
kh1,vt5,348,NA,NA,NA,NA,NA,NA,NA,NA,NA,NA
kh1,vt5,349,NA,NA,NA,NA,NA,NA,NA,NA,NA,NA
kh1,vt5,350,NA,NA,NA,NA,NA,NA,NA,NA,NA,NA
kh1,vt5,351,NA,NA,NA,NA,NA,NA,NA,NA,NA,NA
kh1,vt5,352,NA,NA,NA,NA,NA,NA,NA,NA,NA,NA
kh1,vt5,353,NA,NA,NA,NA,NA,NA,NA,NA,NA,NA
kh1,vt5,354,NA,NA,NA,NA,NA,NA,NA,NA,NA,NA
kh1,vt5,355,NA,NA,NA,NA,NA,NA,NA,NA,NA,NA
kh1,vt5,356,NA,NA,NA,NA,NA,NA,NA,NA,NA,NA
kh1,vt5,357,NA,NA,NA,NA,NA,NA,NA,NA,NA,NA
kh1,vt5,358,NA,NA,NA,NA,NA,NA,NA,NA,NA,NA
kh1,vt5,359,NA,NA,NA,NA,NA,NA,NA,NA,NA,NA
kh1,vt5,360,NA,NA,NA,NA,NA,NA,NA,NA,NA,NA
kh1,vt5,361,NA,NA,NA,NA,NA,NA,NA,NA,NA,NA
kh1,vt5,362,NA,NA,NA,NA,NA,NA,NA,NA,NA,NA
kh1,vt5,363,NA,NA,NA,NA,NA,NA,NA,NA,NA,NA
kh1,vt5,364,NA,NA,NA,NA,NA,NA,NA,NA,NA,NA
kh1,vt5,365,NA,NA,NA,NA,NA,NA,NA,NA,NA,NA
kh1,vt5,366,NA,NA,NA,NA,NA,NA,NA,NA,NA,NA
kh1,vt5,367,NA,NA,NA,NA,NA,NA,NA,NA,NA,NA
kh1,vt5,368,NA,NA,NA,NA,NA,NA,NA,NA,NA,NA
kh1,vt5,369,NA,NA,NA,NA,NA,NA,NA,NA,NA,NA
kh1,vt5,370,NA,NA,NA,NA,NA,NA,NA,NA,NA,NA
kh1,vt5,371,NA,NA,NA,NA,NA,NA,NA,NA,NA,NA
kh1,vt5,372,NA,NA,NA,NA,NA,NA,NA,NA,NA,NA
kh1,vt5,373,NA,NA,NA,NA,NA,NA,NA,NA,NA,NA
kh1,vt5,374,NA,NA,NA,NA,NA,NA,NA,NA,NA,NA
kh1,vt5,375,NA,NA,NA,NA,NA,NA,NA,NA,NA,NA
kh1,vt5,376,NA,NA,NA,NA,NA,NA,NA,NA,NA,NA
kh1,vt5,377,NA,NA,NA,NA,NA,NA,NA,NA,NA,NA
kh1,vt5,378,NA,NA,NA,NA,NA,NA,NA,NA,NA,NA
kh1,vt5,379,NA,NA,NA,NA,NA,NA,NA,NA,NA,NA
kh1,vt5,380,NA,NA,NA,NA,NA,NA,NA,NA,NA,NA
kh1,vt5,381,NA,NA,NA,NA,NA,NA,NA,NA,NA,NA
kh1,vt5,382,NA,NA,NA,NA,NA,NA,NA,NA,NA,NA
kh1,vt5,383,NA,NA,NA,NA,NA,NA,NA,NA,NA,NA
kh1,vt5,384,NA,NA,NA,NA,NA,NA,NA,NA,NA,NA
kh1,vt5,385,NA,NA,NA,NA,NA,NA,NA,NA,NA,NA
kh1,vt5,386,NA,NA,NA,NA,NA,NA,NA,NA,NA,NA
kh1,vt5,387,NA,NA,NA,NA,NA,NA,NA,NA,NA,NA
kh1,vt5,388,NA,NA,NA,NA,NA,NA,NA,NA,NA,NA
kh1,vt5,389,NA,NA,NA,NA,NA,NA,NA,NA,NA,NA
kh1,vt5,390,NA,NA,NA,NA,NA,NA,NA,NA,NA,NA
kh1,vt5,391,NA,NA,NA,NA,NA,NA,NA,NA,NA,NA
kh1,vt5,392,NA,NA,NA,NA,NA,NA,NA,NA,NA,NA
kh1,vt5,393,NA,NA,NA,NA,NA,NA,NA,NA,NA,NA
kh1,vt5,394,NA,NA,NA,NA,NA,NA,NA,NA,NA,NA
kh1,vt5,395,NA,NA,NA,NA,NA,NA,NA,NA,NA,NA
kh1,vt5,396,NA,NA,NA,NA,NA,NA,NA,NA,NA,NA
kh1,vt5,397,NA,NA,NA,NA,NA,NA,NA,NA,NA,NA
kh1,vt5,398,NA,NA,NA,NA,NA,NA,NA,NA,NA,NA
kh1,vt5,399,NA,NA,NA,NA,NA,NA,NA,NA,NA,NA
kh1,vt5,400,NA,NA,NA,NA,NA,NA,NA,NA,NA,NA
kh10,dt1,1,0,0,1,3.1814405688887746,21,335.85714285714283,199.0268681398629,528.2837443188237,9.728008518402149,NA
kh10,dt1,2,0,0,1,2.853555484444314,11,263.3636363636364,103.2455722226755,355.1751392155383,8.864335608257319,NA
kh10,dt1,3,0,0,1,2.9291110399999525,11,253.36363636363637,100.0036732838054,324.88704818417705,8.136790386814683,NA
kh10,dt1,4,0,0,1,2.43244970666683,10,235.9,113.8668374883448,370.037028397796,8.984588919993216,NA
kh10,dt1,5,1,1,1,2.1777280000001156,9,249.44444444444449,56.49078928050814,116.68842256442416,5.962277966913046,NA
kh10,dt1,6,1,1,1,1.6958958933332724,6,310.8333333333333,50.88364884407078,70.57262796146262,7.992529394508422,NA
kh10,dt1,7,0,0,1,2.794047999999748,12,225.33333333333337,114.1937891065083,384.7756808706299,9.624681273618329,NA
kh10,dt1,8,1,1,1,0.933677226666532,3,402.3333333333333,9.024596088033425,0.0484196388555459,2.1337642268067776,NA
kh10,dt1,9,1,1,1,1.0680894577776598,5,258,39.57670727017248,52.86472093435773,7.0953111140976795,NA
kh10,dt1,10,0,0,1,2.6033305600003587,12,203.58333333333337,108.69534255422953,325.1737678256968,9.630566014595225,NA
kh10,dt1,11,0,0,1,2.1132288000003427,9,233,92.66839344184572,183.6975469810636,8.430658840306098,NA
kh10,dt1,12,0,0,1,2.402856391111527,11,209.45454545454547,91.52477810288174,240.68966048264107,8.271308042133656,NA
kh10,dt1,13,0,0,1,2.396749937777713,10,234.2,96.10237356049284,321.5321530095024,8.063385630896148,NA
kh10,dt1,14,0,0,1,2.2455606044441083,9,249.33333333333337,89.29271646048329,269.3026175366526,8.4118102326076,NA
kh10,dt1,15,1,1,1,0.9317341866667448,6,189.16666666666663,29.28931905232474,23.12759776969295,3.4099771573508826,NA
kh10,dt1,16,0,0,1,2.1111031466666645,9,233.66666666666663,62.580084802818575,155.21682542891372,8.828442970400284,NA
kh10,dt1,17,1,1,1,1.0624659911113667,5,253.8,40.349655166943435,45.53112143780382,5.532904420011965,NA
kh10,dt1,18,1,1,1,0.9210467555558352,5,226.2,22.180920231229237,15.781610325107936,3.3924501172401165,NA
kh10,dt1,19,1,1,1,0.7845944888890699,4,265,15.241606487005448,1.6274630204950034,4.483132681761748,NA
kh10,dt1,20,0,0,1,1.964109653333253,10,209.2,105.04828770291782,271.495028690667,7.456525931329718,NA
kh10,dt1,21,1,1,1,2.22353806222236,7,332.42857142857144,74.87798983731778,182.4747301474683,9.20182489053297,NA
kh10,dt1,22,1,1,1,1.1362198755555255,5,283.6,19.045974017446355,2.589201658067805,4.047331401645157,NA
kh10,dt1,23,1,1,1,1.724759608889144,6,304.8333333333333,52.572185363573354,153.5504784217771,7.411642593553858,NA
kh10,dt1,24,1,1,1,0.8339791644443721,4,283,8.902468181653932,0.975583776424908,2.105059133448714,NA
kh10,dt1,25,0,0,1,2.680154168888748,11,234.0909090909091,103.03156206357043,303.1635468991483,10.190158829147911,NA
kh10,dt1,26,1,1,1,0.8843556977776643,4,291.25,18.041139012237696,2.772741963568161,5.357748522343926,NA
kh10,dt1,27,1,1,1,1.712765155555644,8,227.625,64.45503165121835,122.9210249191662,8.06334694080843,NA
kh10,dt1,28,1,1,1,1.961307875555576,9,226.33333333333337,61.5642945590574,131.55450071377854,7.151853125245686,NA
kh10,dt1,29,1,1,1,1.3755190044444134,8,190.625,35.00557727714938,55.590000111188274,4.818331129262029,NA
kh10,dt1,30,0,0,1,3.0112648533331594,14,205.42857142857144,116.71012355888372,305.98052683868997,7.479224864147397,NA
kh10,dt1,31,0,0,1,2.9825592888887513,11,259.09090909090907,108.05573047235691,255.37494471120013,7.9826897618007635,NA
kh10,dt1,32,0,0,1,2.661310862222308,11,245.8181818181818,97.8059913655818,290.18517363373496,10.114680659063277,NA
kh10,dt1,33,1,1,1,1.3562203022220274,6,255.83333333333337,38.26967896818641,32.47070723354217,6.701826021695158,NA
kh10,dt1,34,1,1,1,0.9877563733334682,3,434.6666666666667,10.05334770897857,0.9057007028466638,4.3996579151873005,NA
kh10,dt1,35,0,0,1,2.617422791111494,13,193.15384615384616,84.00080056163634,187.2195224135451,6.846585042583898,NA
kh10,dt1,36,0,0,1,2.096366933333229,8,273.75,85.18419121221166,206.57063669580376,10.565546782554495,NA
kh10,dt1,37,0,0,1,2.257796835555382,8,282.375,88.6396494493414,348.79958242394883,9.040727929795498,NA
kh10,dt1,38,0,0,1,2.270652871110997,9,250.55555555555551,91.69966140901865,229.71249594458348,8.329355297217209,NA
kh10,dt1,39,0,0,1,2.795750684444556,10,273.3,114.2726240866592,358.19083761860446,9.98045999532898,NA
kh10,dt1,40,0,0,1,2.523289315555303,9,283.22222222222223,64.28971075482023,188.72818968711792,7.714047637495908,NA
kh10,dt1,41,0,0,1,2.8634396444444974,12,231.33333333333337,88.21879381185906,300.39636344292194,8.680681199477554,NA
kh10,dt1,42,0,0,1,2.7356128711112433,13,222.30769230769232,92.77142722180888,142.24215540032344,8.013969039587135,NA
kh10,dt1,43,1,0,0,2.6245455644448157,11,233,93.7389064588446,337.59689295463403,9.063372882518156,NA
kh10,dt1,44,0,0,1,2.543540906666749,14,190.07142857142856,104.34342739466337,277.84563063293547,7.2063123438043775,NA
kh10,dt1,45,0,0,1,3.0281810488891097,12,241.08333333333337,111.95615771490156,312.3908078666829,7.80411863364261,NA
kh10,dt1,46,1,1,1,1.4587622399999418,7,224.28571428571428,61.06512953777677,114.41974445323498,7.375642867305708,NA
kh10,dt1,47,0,0,1,2.6867279644443443,11,225.8181818181818,94.69380113464491,165.7727486044073,7.334110719036401,NA
kh10,dt1,48,1,1,1,0.9843908266666404,7,166.57142857142858,44.06789439393272,79.94286527848867,6.899122129607429,NA
kh10,dt1,49,1,1,1,1.8820920888888395,9,217.55555555555551,67.01342744253182,216.04647469600275,9.661614346129223,NA
kh10,dt1,50,1,1,1,1.0124891022223892,6,248.83333333333337,39.12896494149362,52.14394833779322,7.516582503542321,NA
kh10,dt1,51,0,0,1,2.428134115555622,9,268.55555555555554,85.88128588607043,206.45455811672815,6.852591221092576,NA
kh10,dt1,52,0,0,1,2.112079644444293,10,201.9,85.71842536940568,200.7705680194609,8.896075668917772,NA
kh10,dt1,53,1,1,1,1.0264428088889872,4,322.5,25.69982919508131,6.889240294650798,6.317728835018917,NA
kh10,dt1,54,1,1,1,0.940675413333338,5,236.8,21.40996904270527,23.640240422168045,5.373979220670294,NA
kh10,dt1,55,1,1,1,1.2749869511112593,6,250.5,36.74329069799344,18.827402092495163,8.825326663529223,NA
kh10,dt1,56,0,0,1,2.2635209955556093,7,337.2857142857143,69.38563017105034,187.66185469588532,7.831929450091028,NA
kh10,dt1,57,0,0,1,2.46028999111104,9,250.33333333333337,90.00227410481305,321.5358964195059,8.33092590679404,NA
kh10,dt1,58,1,1,1,2.037536426666975,11,196.1818181818182,99.01162088846984,336.23695775168954,8.855306478334041,NA
kh10,dt1,59,1,1,1,0.932757048889016,6,194.33333333333337,30.1714578162824,23.234469386213544,6.758785870467751,NA
kh10,dt1,60,0,0,1,2.467386595555581,10,243,83.47652015948488,223.2481272071734,8.011036928099639,NA
kh10,dt1,61,0,0,1,2.8837734400003683,13,212,98.34519505904504,288.55742940097633,8.466347979928734,NA
kh10,dt1,62,0,0,1,2.781195377777749,12,226.75,85.0504395425366,175.47567463779666,6.612402491745149,NA
kh10,dt1,63,0,0,1,2.522890524444392,12,207.75,91.93320763733573,322.6731955080836,9.263782857903657,NA
kh10,dt1,64,1,1,1,2.221488924444202,10,220.1,83.65765943315182,190.04490950413864,10.21214229117947,NA
kh10,dt1,65,0,0,1,2.7078516622223106,12,219.33333333333337,108.91082044746962,255.9885681310876,8.498266313133097,NA
kh10,dt1,66,0,0,1,2.5152409600000283,11,219.63636363636363,102.31858953137748,249.6682165937552,8.76105718419343,NA
kh10,dt1,67,0,0,1,2.003752106666525,10,228,77.62546180124374,176.9604936505664,6.783010633579022,NA
kh10,dt1,68,0,0,1,2.4899541333334128,11,213.63636363636363,117.43613010641762,274.5293017115655,6.984199746854739,NA
kh10,dt1,69,1,0,0,1.515633777777566,6,277.8333333333333,41.891931824301395,91.27807511403611,8.705525874275997,NA
kh10,dt1,70,0,0,1,2.268927431111024,8,293.125,65.547398325531,143.46469832586968,5.834331676980892,NA
kh10,dt1,71,0,0,1,2.862909155555826,13,227,70.60540578773823,129.91069816513152,6.9773681236389455,NA
kh10,dt1,72,1,0,0,2.8310929066669814,12,223,114.82125924232976,307.57263380821485,8.332700988126359,NA
kh10,dt1,73,1,1,1,2.7731817244443846,14,206.71428571428572,98.93553072740792,199.5296038645899,7.500209190941072,NA
kh10,dt1,74,0,0,1,4.468205653333371,14,252.71428571428572,116.74219560818494,152.47905604504697,7.377540869757936,NA
kh10,dt1,75,1,1,1,1.7892508444442683,8,258.5,86.87749614775593,195.7324202328629,9.110392812810296,NA
kh10,dt1,76,0,0,1,3.040824604444424,14,211.92857142857144,116.47857180568712,244.64522140043013,10.59782847763898,NA
kh10,dt1,77,1,1,1,2.835937848888989,11,266.72727272727275,84.20230480918174,192.4843309367769,9.277481715292057,NA
kh10,dt1,78,1,1,1,1.3918344533331035,6,272.3333333333333,21.974351975066757,11.278708083191583,6.375001878471551,NA
kh10,dt1,79,1,1,1,0.8837011911114132,5,236.2,12.932339716733932,3.5430444396135874,2.7189874134414604,NA
kh10,dt1,80,1,1,1,1.092850915555573,5,265,34.31296230189262,43.944025159522525,7.3812799861532,NA
kh10,dt1,81,1,1,1,1.426526719999856,8,203.125,29.472801074907466,21.1657806718966,5.528472591589943,NA
kh10,dt1,82,1,1,1,0.9336217600002784,5,240.4,11.743731526180827,3.054242743727013,3.733796719789901,NA
kh10,dt1,83,0,0,1,3.379850239999996,18,174.66666666666666,123.50148517123849,264.7965963950845,8.223479703027708,NA
kh10,dt1,84,1,1,1,1.2866002488890445,5,309.8,17.467468112666232,10.17149140261288,6.478429056506159,NA
kh10,dt1,85,1,1,1,0.989516231111338,6,231.33333333333337,31.402627346283275,27.286997405469897,8.468038306811097,NA
kh10,dt1,86,1,1,1,1.0304893155557693,6,193.16666666666663,31.14233910696124,39.95558066741955,6.328437759400189,NA
kh10,dt1,87,0,0,1,2.1237606400000004,8,274.125,66.54329141468843,203.9473353116843,8.695821289627833,NA
kh10,dt1,88,1,1,1,0.9619137422223504,6,199,18.78567289040724,17.963631233795525,5.000468448835308,NA
kh10,dt1,89,1,1,1,1.8331608177777523,7,277.42857142857144,58.95643762557792,140.1556370980676,8.500526522094331,NA
kh10,dt1,90,1,1,1,0.8638025955556259,5,223.6,25.247769084921043,17.670016413654473,4.958043726372308,NA
kh10,dt1,91,1,1,1,1.8233847466667612,8,249.125,55.77039358224616,127.31165772994228,10.666503155782214,NA
kh10,dt1,92,1,1,1,1.7853090133335172,8,242.375,46.13460779828754,47.73070167848851,8.63533264926201,NA
kh10,dt1,93,1,1,1,2.56269653333311,11,225.36363636363637,88.16958500314269,212.93625975548144,8.225620610778059,NA
kh10,dt1,94,1,1,1,2.114867199999935,10,216.1,62.8663121284126,135.6823863154866,8.42706980749679,NA
kh10,dt1,95,0,0,1,2.331534222222672,10,246.8,81.81940392121524,166.61014759614545,7.320300621783335,NA
kh10,dt1,96,0,0,1,2.6426311111113137,10,257,100.66667350715032,299.11907908074835,11.272529506511525,NA
kh10,dt1,97,0,0,1,2.65528291555529,11,235.1818181818182,93.02738391497536,251.1555701690056,8.088803659638819,NA
kh10,dt1,98,0,0,1,2.348246755555465,10,234.8,101.54319212715112,281.96972534724483,7.358486550222472,NA
kh10,dt1,99,0,0,1,2.8713429333333806,12,230.08333333333337,112.9044763798689,345.1765531819084,9.83799705332756,NA
kh10,dt1,100,1,1,1,1.2354065066665498,4,281.75,14.566087570466395,6.021444813683881,8.532778541601328,NA
kh10,dt2,1,0,0,1,2.825070648888868,20,327.25,192.80964715562857,488.5414868921033,9.13261745154571,NA
kh10,dt2,2,0,0,1,2.7064775111111885,10,265.4,97.3407637642736,230.22487199322396,8.263908631352923,NA
kh10,dt2,3,0,0,1,2.593514097777188,10,262.6,67.9251048759127,219.2251629966768,8.059643599210721,NA
kh10,dt2,4,0,0,1,2.8011127466670587,11,238.8181818181818,100.7717401918621,244.46599788578257,9.8904021987739,NA
kh10,dt2,5,1,1,1,1.0257794844446837,5,251,23.681630538705004,15.1865724793745,6.683319236310248,NA
kh10,dt2,6,0,0,1,2.563862186667393,8,317.5,84.13143361110728,325.3058901122316,9.42996815576254,NA
kh10,dt2,7,0,0,1,2.5295118222229576,9,284.1111111111111,82.26476357684415,259.0979211742814,8.209783556508008,NA
kh10,dt2,8,1,1,1,1.9057982577778605,7,319.42857142857144,45.25509091674954,84.80079617724797,9.165806812310963,NA
