Task Type,Participant ID,Trial,Target Present,Target orientation,Response,Correct,Reaction Time (s),Num Gabors,Gabor Positions,Target Trajectory,Speed (px/s),FixOnTargetTime(s),LastFixIndex,CalibrationDrift(deg)
dynamic task,kh15_dt1,1,0,0,0,1,1.3180027346475072,10,"[[(28.08, 3.92), (17.0, 12.58), (17.0, 31.23), (3.0, 18.16), (13.29, 14.29), (2.75, 4.75), (2.0, 2.77), (28.45, 30.0), (9.81, 27.19), (8.0, 12.05)], [(28.07, 3.93), (17.0, 12.59), (17.0, 31.23), (3.0, 18.17), (13.29, 14.29), (2.75, 4.75), (2.0, 2.78), (28.45, 30.0), (9.81, 27.19), (8.0, 12.05)], [(28.07, 3.93), (17.0, 12.59), (17.0, 31.22), (3.0, 18.17), (13.3, 14.3), (2.75, 4.75), (2.0, 2.79), (28.44, 30.0), (9.82, 27.18), (8.0, 12.04)], [(28.06, 3.94), (17.0, 12.6), (17.0, 31.21), (3.0, 18.18), (13.3, 14.3), (2.76, 4.76), (2.0, 2.79), (28.43, 30.0), (9.82, 27.18), (8.0, 12.03)], [(28.06, 3.94), (17.0, 12.61), (17.0, 31.21), (3.0, 18.19), (13.31, 14.31), (2.76, 4.76), (2.0, 2.8), (28.43, 30.0), (9.83, 27.17), (8.0, 12.03)], [(28.05, 3.95), (17.0, 12.61), (17.0, 31.2), (3.0, 18.19), (13.31, 14.31), (2.77, 4.77), (2.0, 2.81), (28.42, 30.0), (9.83, 27.17), (8.0, 12.02)], [(28.05, 3.95), (17.0, 12.62), (17.0, 31.19), (3.0, 18.2), (13.32, 14.32), (2.77, 4.77), (2.0, 2.81), (28.41, 30.0), (9.83, 27.17), (8.0, 12.01)], [(28.04, 3.96), (17.0, 12.63), (17.0, 31.19), (3.0, 18.21), (13.32, 14.32), (2.78, 4.78), (2.0, 2.82), (28.41, 30.0), (9.84, 27.16), (8.0, 12.01)], [(28.04, 3.96), (17.0, 12.63), (17.0, 31.18), (3.0, 18.21), (13.33, 14.33), (2.78, 4.78), (2.0, 2.83), (28.4, 30.0), (9.84, 27.16), (8.0, 12.0)], [(28.03, 3.97), (17.0, 12.64), (17.0, 31.17), (3.0, 18.22), (13.33, 14.33), (2.79, 4.79), (2.0, 2.83), (28.39, 30.0), (9.85, 27.15), (8.0, 11.99)], [(28.03, 3.97), (17.0, 12.65), (17.0, 31.17), (3.0, 18.23), (13.33, 14.33), (2.79, 4.79), (2.0, 2.84), (28.39, 30.0), (9.85, 27.15), (8.0, 11.99)], [(28.02, 3.98), (17.0, 12.65), (17.0, 31.16), (3.0, 18.23), (13.34, 14.34), (2.8, 4.8), (2.0, 2.85), (28.38, 30.0), (9.86, 27.14), (8.0, 11.98)], [(28.02, 3.98), (17.0, 12.66), (17.0, 31.15), (3.0, 18.24), (13.34, 14.34), (2.8, 4.8), (2.0, 2.85), (28.37, 30.0), (9.86, 27.14), (8.0, 11.97)], [(28.01, 3.99), (17.0, 12.67), (17.0, 31.15), (3.0, 18.25), (13.35, 14.35), (2.81, 4.81), (2.0, 2.86), (28.37, 30.0), (9.87, 27.13), (8.0, 11.97)], [(28.01, 3.99), (17.0, 12.67), (17.0, 31.14), (3.0, 18.25), (13.35, 14.35), (2.81, 4.81), (2.0, 2.87), (28.36, 30.0), (9.87, 27.13), (8.0, 11.96)], [(28.0, 4.0), (17.0, 12.68), (17.0, 31.13), (3.0, 18.26), (13.36, 14.36), (2.82, 4.82), (2.0, 2.87), (28.35, 30.0), (9.88, 27.12), (8.0, 11.95)], [(28.0, 4.0), (17.0, 12.69), (17.0, 31.13), (3.0, 18.27), (13.36, 14.36), (2.82, 4.82), (2.0, 2.88), (28.35, 30.0), (9.88, 27.12), (8.0, 11.95)], [(28.0, 4.0), (17.0, 12.69), (17.0, 31.12), (3.0, 18.27), (13.37, 14.37), (2.83, 4.83), (2.0, 2.89), (28.34, 30.0), (9.89, 27.11), (8.0, 11.94)], [(27.99, 4.01), (17.0, 12.7), (17.0, 31.11), (3.0, 18.28), (13.37, 14.37), (2.83, 4.83), (2.0, 2.89), (28.33, 30.0), (9.89, 27.11), (8.0, 11.93)], [(27.99, 4.01), (17.0, 12.71), (17.0, 31.11), (3.0, 18.29), (13.38, 14.38), (2.83, 4.83), (2.0, 2.9), (28.33, 30.0), (9.9, 27.1), (8.0, 11.93)], [(27.98, 4.02), (17.0, 12.71), (17.0, 31.1), (3.0, 18.29), (13.38, 14.38), (2.84, 4.84), (2.0, 2.91), (28.32, 30.0), (9.9, 27.1), (8.0, 11.92)], [(27.98, 4.02), (17.0, 12.72), (17.0, 31.09), (3.0, 18.3), (13.39, 14.39), (2.84, 4.84), (2.0, 2.91), (28.31, 30.0), (9.91, 27.09), (8.0, 11.91)], [(27.97, 4.03), (17.0, 12.73), (17.0, 31.09), (3.0, 18.31), (13.39, 14.39), (2.85, 4.85), (2.0, 2.92), (28.31, 30.0), (9.91, 27.09), (8.0, 11.91)], [(27.97, 4.03), (17.0, 12.73), (17.0, 31.08), (3.0, 18.31), (13.4, 14.4), (2.85, 4.85), (2.0, 2.93), (28.3, 30.0), (9.92, 27.08), (8.0, 11.9)]]",,0.0,,,1.529
dynamic task,kh15_dt1,2,1,0,1,1,0.8813992496930041,10,"[[(29.24, 7.76), (21.86, 15.14), (29.0, 18.85), (9.48, 13.0), (21.67, 8.0), (5.0, 9.67), (27.41, 29.41), (7.0, 11.17), (17.78, 11.78), (15.99, 23.99)], [(29.24, 7.76), (21.85, 15.15), (29.0, 18.85), (9.49, 13.0), (21.67, 8.0), (5.0, 9.67), (27.42, 29.42), (7.0, 11.16), (17.77, 11.77), (15.99, 23.99)], [(29.25, 7.75), (21.85, 15.15), (29.0, 18.84), (9.49, 13.0), (21.68, 8.0), (5.0, 9.66), (27.42, 29.42), (7.0, 11.15), (17.77, 11.77), (15.98, 23.98)], [(29.25, 7.75), (21.84, 15.16), (29.0, 18.83), (9.5, 13.0), (21.69, 8.0), (5.0, 9.65), (27.42, 29.42), (7.0, 11.15), (17.76, 11.76), (15.98, 23.98)], [(29.25, 7.75), (21.84, 15.16), (29.0, 18.83), (9.51, 13.0), (21.69, 8.0), (5.0, 9.65), (27.43, 29.43), (7.0, 11.14), (17.76, 11.76), (15.97, 23.97)], [(29.26, 7.74), (21.83, 15.17), (29.0, 18.82), (9.51, 13.0), (21.7, 8.0), (5.0, 9.64), (27.43, 29.43), (7.0, 11.13), (17.75, 11.75), (15.97, 23.97)], [(29.26, 7.74), (21.83, 15.17), (29.0, 18.81), (9.52, 13.0), (21.71, 8.0), (5.0, 9.63), (27.44, 29.44), (7.0, 11.13), (17.75, 11.75), (15.96, 23.96)], [(29.27, 7.73), (21.83, 15.17), (29.0, 18.81), (9.53, 13.0), (21.71, 8.0), (5.0, 9.63), (27.44, 29.44), (7.0, 11.12), (17.75, 11.75), (15.96, 23.96)], [(29.27, 7.73), (21.82, 15.18), (29.0, 18.8), (9.53, 13.0), (21.72, 8.0), (5.0, 9.62), (27.45, 29.45), (7.0, 11.11), (17.74, 11.74), (15.95, 23.95)], [(29.28, 7.72), (21.82, 15.18), (29.0, 18.79), (9.54, 13.0), (21.73, 8.0), (5.0, 9.61), (27.45, 29.45), (7.0, 11.11), (17.74, 11.74), (15.95, 23.95)], [(29.28, 7.72), (21.81, 15.19), (29.0, 18.79), (9.55, 13.0), (21.73, 8.0), (5.0, 9.61), (27.46, 29.46), (7.0, 11.1), (17.73, 11.73), (15.94, 23.94)], [(29.29, 7.71), (21.81, 15.19), (29.0, 18.78), (9.55, 13.0), (21.74, 8.0), (5.0, 9.6), (27.46, 29.46), (7.0, 11.09), (17.73, 11.73), (15.94, 23.94)], [(29.29, 7.71), (21.8, 15.2), (29.0, 18.77), (9.56, 13.0), (21.75, 8.0), (5.0, 9.59), (27.47, 29.47), (7.0, 11.09), (17.72, 11.72), (15.93, 23.93)], [(29.3, 7.7), (21.8, 15.2), (29.0, 18.77), (9.57, 13.0), (21.75, 8.0), (5.0, 9.59), (27.47, 29.47), (7.0, 11.08), (17.72, 11.72), (15.93, 23.93)], [(29.3, 7.7), (21.79, 15.21), (29.0, 18.76), (9.57, 13.0), (21.76, 8.0), (5.0, 9.58), (27.48, 29.48), (7.0, 11.07), (17.71, 11.71), (15.92, 23.92)]]","[(27.41, 29.41), (27.42, 29.42), (27.42, 29.42), (27.42, 29.42), (27.43, 29.43), (27.43, 29.43), (27.44, 29.44), (27.44, 29.44), (27.45, 29.45), (27.45, 29.45), (27.46, 29.46), (27.46, 29.46), (27.47, 29.47), (27.47, 29.47), (27.48, 29.48)]",3.79,,,1.398
dynamic task,kh15_dt1,3,1,0,0,0,0.7880139161520674,10,"[[(3.92, 15.08), (12.0, 6.73), (3.1, 21.9), (23.97, 12.0), (20.82, 28.82), (3.0, 12.41), (5.0, 13.39), (13.53, 30.47), (20.6, 8.4), (15.79, 11.79)], [(3.91, 15.09), (12.0, 6.74), (3.11, 21.89), (23.97, 12.0), (20.82, 28.82), (3.0, 12.4), (5.0, 13.39), (13.52, 30.48), (20.6, 8.4), (15.79, 11.79)], [(3.91, 15.09), (12.0, 6.75), (3.11, 21.89), (23.96, 12.0), (20.81, 28.81), (3.0, 12.39), (5.0, 13.38), (13.52, 30.48), (20.59, 8.41), (15.78, 11.78)], [(3.9, 15.1), (12.0, 6.75), (3.12, 21.88), (23.95, 12.0), (20.81, 28.81), (3.0, 12.39), (5.0, 13.37), (13.51, 30.49), (20.59, 8.41), (15.78, 11.78)], [(3.9, 15.1), (12.0, 6.76), (3.12, 21.88), (23.95, 12.0), (20.8, 28.8), (3.0, 12.38), (5.0, 13.37), (13.51, 30.49), (20.58, 8.41), (15.77, 11.77)], [(3.89, 15.11), (12.0, 6.77), (3.13, 21.87), (23.94, 12.0), (20.8, 28.8), (3.0, 12.37), (5.0, 13.36), (13.5, 30.5), (20.58, 8.42), (15.77, 11.77)], [(3.89, 15.11), (12.0, 6.77), (3.13, 21.87), (23.93, 12.0), (20.79, 28.79), (3.0, 12.37), (5.0, 13.35), (13.5, 30.5), (20.58, 8.42), (15.76, 11.76)], [(3.88, 15.12), (12.0, 6.78), (3.14, 21.86), (23.93, 12.0), (20.79, 28.79), (3.0, 12.36), (5.0, 13.35), (13.5, 30.5), (20.57, 8.43), (15.76, 11.76)], [(3.88, 15.12), (12.0, 6.79), (3.14, 21.86), (23.92, 12.0), (20.78, 28.78), (3.0, 12.35), (5.0, 13.34), (13.49, 30.51), (20.57, 8.43), (15.75, 11.75)], [(3.87, 15.13), (12.0, 6.79), (3.15, 21.85), (23.91, 12.0), (20.78, 28.78), (3.0, 12.35), (5.0, 13.33), (13.49, 30.51), (20.56, 8.44), (15.75, 11.75)], [(3.87, 15.13), (12.0, 6.8), (3.15, 21.85), (23.91, 12.0), (20.77, 28.77), (3.0, 12.34), (5.0, 13.33), (13.48, 30.52), (20.56, 8.44), (15.75, 11.75)], [(3.86, 15.14), (12.0, 6.81), (3.16, 21.84), (23.9, 12.0), (20.77, 28.77), (3.0, 12.33), (5.0, 13.32), (13.48, 30.52), (20.55, 8.45), (15.74, 11.74)], [(3.86, 15.14), (12.0, 6.81), (3.16, 21.84), (23.89, 12.0), (20.76, 28.76), (3.0, 12.33), (5.0, 13.31), (13.47, 30.53), (20.55, 8.45), (15.74, 11.74)]]","[(13.53, 30.47), (13.52, 30.48), (13.52, 30.48), (13.51, 30.49), (13.51, 30.49), (13.5, 30.5), (13.5, 30.5), (13.5, 30.5), (13.49, 30.51), (13.49, 30.51), (13.48, 30.52), (13.48, 30.52), (13.47, 30.53)]",3.57,,,0.58
dynamic task,kh15_dt1,4,1,0,1,1,0.8366937106811747,10,"[[(23.83, 8.17), (12.07, 11.93), (17.68, 9.32), (9.82, 6.18), (17.41, 9.0), (19.89, 16.11), (9.44, 3.0), (14.49, 28.0), (15.0, 12.95), (17.0, 29.82)], [(23.82, 8.18), (12.08, 11.92), (17.68, 9.32), (9.82, 6.18), (17.42, 9.0), (19.89, 16.11), (9.45, 3.0), (14.49, 28.0), (15.0, 12.94), (17.0, 29.83)], [(23.82, 8.18), (12.08, 11.92), (17.69, 9.31), (9.81, 6.19), (17.43, 9.0), (19.88, 16.12), (9.45, 3.0), (14.48, 28.0), (15.0, 12.93), (17.0, 29.83)], [(23.81, 8.19), (12.08, 11.92), (17.69, 9.31), (9.81, 6.19), (17.43, 9.0), (19.88, 16.12), (9.46, 3.0), (14.47, 28.0), (15.0, 12.93), (17.0, 29.84)], [(23.81, 8.19), (12.09, 11.91), (17.7, 9.3), (9.8, 6.2), (17.44, 9.0), (19.87, 16.13), (9.47, 3.0), (14.47, 28.0), (15.0, 12.92), (17.0, 29.85)], [(23.8, 8.2), (12.09, 11.91), (17.7, 9.3), (9.8, 6.2), (17.45, 9.0), (19.87, 16.13), (9.47, 3.0), (14.46, 28.0), (15.0, 12.91), (17.0, 29.85)], [(23.8, 8.2), (12.1, 11.9), (17.71, 9.29), (9.79, 6.21), (17.45, 9.0), (19.86, 16.14), (9.48, 3.0), (14.45, 28.0), (15.0, 12.91), (17.0, 29.86)], [(23.79, 8.21), (12.1, 11.9), (17.71, 9.29), (9.79, 6.21), (17.46, 9.0), (19.86, 16.14), (9.49, 3.0), (14.45, 28.0), (15.0, 12.9), (17.0, 29.87)], [(23.79, 8.21), (12.11, 11.89), (17.72, 9.28), (9.78, 6.22), (17.47, 9.0), (19.85, 16.15), (9.49, 3.0), (14.44, 28.0), (15.0, 12.89), (17.0, 29.87)], [(23.78, 8.22), (12.11, 11.89), (17.72, 9.28), (9.78, 6.22), (17.47, 9.0), (19.85, 16.15), (9.5, 3.0), (14.43, 28.0), (15.0, 12.89), (17.0, 29.88)], [(23.78, 8.22), (12.12, 11.88), (17.73, 9.27), (9.77, 6.23), (17.48, 9.0), (19.84, 16.16), (9.51, 3.0), (14.43, 28.0), (15.0, 12.88), (17.0, 29.89)], [(23.77, 8.23), (12.12, 11.88), (17.73, 9.27), (9.77, 6.23), (17.49, 9.0), (19.84, 16.16), (9.51, 3.0), (14.42, 28.0), (15.0, 12.87), (17.0, 29.89)], [(23.77, 8.23), (12.13, 11.87), (17.74, 9.26), (9.76, 6.24), (17.49, 9.0), (19.83, 16.17), (9.52, 3.0), (14.41, 28.0), (15.0, 12.87), (17.0, 29.9)], [(23.76, 8.24), (12.13, 11.87), (17.74, 9.26), (9.76, 6.24), (17.5, 9.0), (19.83, 16.17), (9.53, 3.0), (14.41, 28.0), (15.0, 12.86), (17.0, 29.91)]]","[(14.49, 28.0), (14.49, 28.0), (14.48, 28.0), (14.47, 28.0), (14.47, 28.0), (14.46, 28.0), (14.45, 28.0), (14.45, 28.0), (14.44, 28.0), (14.43, 28.0), (14.43, 28.0), (14.42, 28.0), (14.41, 28.0), (14.41, 28.0)]",3.22,,,0.806
dynamic task,kh15_dt1,5,0,0,0,1,0.8378949188863771,10,"[[(8.59, 5.42), (14.01, 19.01), (23.17, 12.83), (17.05, 17.05), (14.0, 4.78), (22.34, 9.66), (23.0, 24.26), (4.84, 12.0), (22.0, 16.03), (25.41, 29.41)], [(8.58, 5.42), (14.01, 19.01), (23.18, 12.82), (17.05, 17.05), (14.0, 4.79), (22.34, 9.66), (23.0, 24.27), (4.83, 12.0), (22.0, 16.02), (25.41, 29.41)], [(8.58, 5.42), (14.02, 19.02), (23.18, 12.82), (17.04, 17.04), (14.0, 4.79), (22.35, 9.65), (23.0, 24.27), (4.83, 12.0), (22.0, 16.01), (25.42, 29.42)], [(8.57, 5.43), (14.02, 19.02), (23.19, 12.81), (17.04, 17.04), (14.0, 4.8), (22.35, 9.65), (23.0, 24.28), (4.82, 12.0), (22.0, 16.01), (25.42, 29.42)], [(8.57, 5.43), (14.03, 19.03), (23.19, 12.81), (17.03, 17.03), (14.0, 4.81), (22.36, 9.64), (23.0, 24.29), (4.81, 12.0), (22.0, 16.0), (25.42, 29.42)], [(8.56, 5.44), (14.03, 19.03), (23.2, 12.8), (17.03, 17.03), (14.0, 4.81), (22.36, 9.64), (23.0, 24.29), (4.81, 12.0), (22.0, 15.99), (25.43, 29.43)], [(8.56, 5.44), (14.04, 19.04), (23.2, 12.8), (17.02, 17.02), (14.0, 4.82), (22.37, 9.63), (23.0, 24.3), (4.8, 12.0), (22.0, 15.99), (25.43, 29.43)], [(8.55, 5.45), (14.04, 19.04), (23.21, 12.79), (17.02, 17.02), (14.0, 4.83), (22.37, 9.63), (23.0, 24.31), (4.79, 12.0), (22.0, 15.98), (25.44, 29.44)], [(8.55, 5.45), (14.05, 19.05), (23.21, 12.79), (17.01, 17.01), (14.0, 4.83), (22.38, 9.62), (23.0, 24.31), (4.79, 12.0), (22.0, 15.97), (25.44, 29.44)], [(8.54, 5.46), (14.05, 19.05), (23.22, 12.78), (17.01, 17.01), (14.0, 4.84), (22.38, 9.62), (23.0, 24.32), (4.78, 12.0), (22.0, 15.97), (25.45, 29.45)], [(8.54, 5.46), (14.06, 19.06), (23.22, 12.78), (17.0, 17.0), (14.0, 4.85), (22.39, 9.61), (23.0, 24.33), (4.77, 12.0), (22.0, 15.96), (25.45, 29.45)], [(8.53, 5.47), (14.06, 19.06), (23.23, 12.77), (17.0, 17.0), (14.0, 4.85), (22.39, 9.61), (23.0, 24.33), (4.77, 12.0), (22.0, 15.95), (25.46, 29.46)], [(8.53, 5.47), (14.07, 19.07), (23.23, 12.77), (17.0, 17.0), (14.0, 4.86), (22.4, 9.6), (23.0, 24.34), (4.76, 12.0), (22.0, 15.95), (25.46, 29.46)], [(8.52, 5.48), (14.07, 19.07), (23.24, 12.76), (16.99, 16.99), (14.0, 4.87), (22.4, 9.6), (23.0, 24.35), (4.75, 12.0), (22.0, 15.94), (25.47, 29.47)]]",,0.0,,,1.943
dynamic task,kh15_dt1,6,0,0,0,1,0.9314654256554604,10,"[[(21.0, 28.0), (2.0, 19.25), (14.08, 17.08), (5.48, 19.0), (21.97, 16.03), (31.42, 30.58), (8.66, 29.34), (13.7, 7.0), (16.87, 11.13), (12.12, 27.88)], [(21.0, 28.0), (2.0, 19.24), (14.08, 17.08), (5.49, 19.0), (21.97, 16.03), (31.42, 30.58), (8.66, 29.34), (13.69, 7.0), (16.86, 11.14), (12.12, 27.88)], [(21.0, 28.0), (2.0, 19.23), (14.08, 17.08), (5.49, 19.0), (21.96, 16.04), (31.42, 30.58), (8.65, 29.35), (13.69, 7.0), (16.86, 11.14), (12.13, 27.87)], [(21.01, 27.99), (2.0, 19.23), (14.07, 17.07), (5.5, 19.0), (21.96, 16.04), (31.41, 30.59), (8.65, 29.35), (13.68, 7.0), (16.85, 11.15), (12.13, 27.87)], [(21.01, 27.99), (2.0, 19.22), (14.07, 17.07), (5.51, 19.0), (21.95, 16.05), (31.41, 30.59), (8.64, 29.36), (13.67, 7.0), (16.85, 11.15), (12.14, 27.86)], [(21.02, 27.98), (2.0, 19.21), (14.06, 17.06), (5.51, 19.0), (21.95, 16.05), (31.4, 30.6), (8.64, 29.36), (13.67, 7.0), (16.84, 11.16), (12.14, 27.86)], [(21.02, 27.98), (2.0, 19.21), (14.06, 17.06), (5.52, 19.0), (21.94, 16.06), (31.4, 30.6), (8.63, 29.37), (13.66, 7.0), (16.84, 11.16), (12.15, 27.85)], [(21.03, 27.97), (2.0, 19.2), (14.05, 17.05), (5.53, 19.0), (21.94, 16.06), (31.39, 30.61), (8.63, 29.37), (13.65, 7.0), (16.83, 11.17), (12.15, 27.85)], [(21.03, 27.97), (2.0, 19.19), (14.05, 17.05), (5.53, 19.0), (21.93, 16.07), (31.39, 30.61), (8.62, 29.38), (13.65, 7.0), (16.83, 11.17), (12.16, 27.84)], [(21.04, 27.96), (2.0, 19.19), (14.04, 17.04), (5.54, 19.0), (21.93, 16.07), (31.38, 30.62), (8.62, 29.38), (13.64, 7.0), (16.83, 11.17), (12.16, 27.84)], [(21.04, 27.96), (2.0, 19.18), (14.04, 17.04), (5.55, 19.0), (21.92, 16.08), (31.38, 30.62), (8.61, 29.39), (13.63, 7.0), (16.82, 11.18), (12.17, 27.83)], [(21.05, 27.95), (2.0, 19.17), (14.03, 17.03), (5.55, 19.0), (21.92, 16.08), (31.37, 30.63), (8.61, 29.39), (13.63, 7.0), (16.82, 11.18), (12.17, 27.83)], [(21.05, 27.95), (2.0, 19.17), (14.03, 17.03), (5.56, 19.0), (21.92, 16.08), (31.37, 30.63), (8.6, 29.4), (13.62, 7.0), (16.81, 11.19), (12.17, 27.83)], [(21.06, 27.94), (2.0, 19.16), (14.02, 17.02), (5.57, 19.0), (21.91, 16.09), (31.36, 30.64), (8.6, 29.4), (13.61, 7.0), (16.81, 11.19), (12.18, 27.82)], [(21.06, 27.94), (2.0, 19.15), (14.02, 17.02), (5.57, 19.0), (21.91, 16.09), (31.36, 30.64), (8.59, 29.41), (13.61, 7.0), (16.8, 11.2), (12.18, 27.82)], [(21.07, 27.93), (2.0, 19.15), (14.01, 17.01), (5.58, 19.0), (21.9, 16.1), (31.35, 30.65), (8.59, 29.41), (13.6, 7.0), (16.8, 11.2), (12.19, 27.81)]]",,0.0,,,1.281
dynamic task,kh15_dt1,7,0,0,0,1,0.8832094531076109,10,"[[(12.69, 31.31), (26.38, 25.38), (30.21, 22.0), (25.04, 22.96), (25.0, 18.99), (5.82, 16.0), (11.9, 12.1), (10.32, 25.68), (8.45, 31.0), (13.65, 19.65)], [(12.7, 31.3), (26.39, 25.39), (30.2, 22.0), (25.04, 22.96), (25.0, 19.0), (5.81, 16.0), (11.9, 12.1), (10.33, 25.67), (8.46, 31.0), (13.65, 19.65)], [(12.7, 31.3), (26.39, 25.39), (30.19, 22.0), (25.05, 22.95), (25.0, 19.01), (5.81, 16.0), (11.89, 12.11), (10.33, 25.67), (8.47, 31.0), (13.64, 19.64)], [(12.71, 31.29), (26.4, 25.4), (30.19, 22.0), (25.05, 22.95), (25.0, 19.01), (5.8, 16.0), (11.89, 12.11), (10.33, 25.67), (8.47, 31.0), (13.64, 19.64)], [(12.71, 31.29), (26.4, 25.4), (30.18, 22.0), (25.06, 22.94), (25.0, 19.02), (5.79, 16.0), (11.88, 12.12), (10.34, 25.66), (8.48, 31.0), (13.63, 19.63)], [(12.72, 31.28), (26.41, 25.41), (30.17, 22.0), (25.06, 22.94), (25.0, 19.03), (5.79, 16.0), (11.88, 12.12), (10.34, 25.66), (8.49, 31.0), (13.63, 19.63)], [(12.72, 31.28), (26.41, 25.41), (30.17, 22.0), (25.07, 22.93), (25.0, 19.03), (5.78, 16.0), (11.87, 12.13), (10.35, 25.65), (8.49, 31.0), (13.62, 19.62)], [(12.73, 31.27), (26.42, 25.42), (30.16, 22.0), (25.07, 22.93), (25.0, 19.04), (5.77, 16.0), (11.87, 12.13), (10.35, 25.65), (8.5, 31.0), (13.62, 19.62)], [(12.73, 31.27), (26.42, 25.42), (30.15, 22.0), (25.08, 22.92), (25.0, 19.05), (5.77, 16.0), (11.86, 12.14), (10.36, 25.64), (8.51, 31.0), (13.61, 19.61)], [(12.74, 31.26), (26.42, 25.42), (30.15, 22.0), (25.08, 22.92), (25.0, 19.05), (5.76, 16.0), (11.86, 12.14), (10.36, 25.64), (8.51, 31.0), (13.61, 19.61)], [(12.74, 31.26), (26.43, 25.43), (30.14, 22.0), (25.08, 22.92), (25.0, 19.06), (5.75, 16.0), (11.85, 12.15), (10.37, 25.63), (8.52, 31.0), (13.6, 19.6)], [(12.75, 31.25), (26.43, 25.43), (30.13, 22.0), (25.09, 22.91), (25.0, 19.07), (5.75, 16.0), (11.85, 12.15), (10.37, 25.63), (8.53, 31.0), (13.6, 19.6)], [(12.75, 31.25), (26.44, 25.44), (30.13, 22.0), (25.09, 22.91), (25.0, 19.07), (5.74, 16.0), (11.84, 12.16), (10.38, 25.62), (8.53, 31.0), (13.59, 19.59)], [(12.75, 31.25), (26.44, 25.44), (30.12, 22.0), (25.1, 22.9), (25.0, 19.08), (5.73, 16.0), (11.84, 12.16), (10.38, 25.62), (8.54, 31.0), (13.59, 19.59)], [(12.76, 31.24), (26.45, 25.45), (30.11, 22.0), (25.1, 22.9), (25.0, 19.09), (5.73, 16.0), (11.83, 12.17), (10.39, 25.61), (8.55, 31.0), (13.58, 19.58)]]",,0.0,,,1.678
dynamic task,kh15_dt1,8,1,0,0,0,1.323047638443768,10,"[[(18.74, 11.74), (26.94, 24.0), (12.57, 16.0), (2.92, 9.92), (4.5, 31.0), (9.8, 10.8), (8.0, 9.66), (11.62, 11.38), (2.46, 17.46), (28.42, 3.58)], [(18.74, 11.74), (26.95, 24.0), (12.57, 16.0), (2.92, 9.92), (4.51, 31.0), (9.8, 10.8), (8.0, 9.67), (11.62, 11.38), (2.47, 17.47), (28.42, 3.58)], [(18.73, 11.73), (26.95, 24.0), (12.56, 16.0), (2.93, 9.93), (4.51, 31.0), (9.79, 10.79), (8.0, 9.67), (11.61, 11.39), (2.47, 17.47), (28.41, 3.59)], [(18.73, 11.73), (26.96, 24.0), (12.55, 16.0), (2.93, 9.93), (4.52, 31.0), (9.79, 10.79), (8.0, 9.68), (11.61, 11.39), (2.48, 17.48), (28.41, 3.59)], [(18.72, 11.72), (26.97, 24.0), (12.55, 16.0), (2.94, 9.94), (4.53, 31.0), (9.78, 10.78), (8.0, 9.69), (11.6, 11.4), (2.48, 17.48), (28.4, 3.6)], [(18.72, 11.72), (26.97, 24.0), (12.54, 16.0), (2.94, 9.94), (4.53, 31.0), (9.78, 10.78), (8.0, 9.69), (11.6, 11.4), (2.49, 17.49), (28.4, 3.6)], [(18.71, 11.71), (26.98, 24.0), (12.53, 16.0), (2.95, 9.95), (4.54, 31.0), (9.77, 10.77), (8.0, 9.7), (11.59, 11.41), (2.49, 17.49), (28.39, 3.61)], [(18.71, 11.71), (26.99, 24.0), (12.53, 16.0), (2.95, 9.95), (4.55, 31.0), (9.77, 10.77), (8.0, 9.71), (11.59, 11.41), (2.5, 17.5), (28.39, 3.61)], [(18.7, 11.7), (26.99, 24.0), (12.52, 16.0), (2.96, 9.96), (4.55, 31.0), (9.76, 10.76), (8.0, 9.71), (11.58, 11.42), (2.5, 17.5), (28.38, 3.62)], [(18.7, 11.7), (27.0, 24.0), (12.51, 16.0), (2.96, 9.96), (4.56, 31.0), (9.76, 10.76), (8.0, 9.72), (11.58, 11.42), (2.5, 17.5), (28.38, 3.62)], [(18.69, 11.69), (27.01, 24.0), (12.51, 16.0), (2.97, 9.97), (4.57, 31.0), (9.75, 10.75), (8.0, 9.73), (11.58, 11.42), (2.51, 17.51), (28.37, 3.63)], [(18.69, 11.69), (27.01, 24.0), (12.5, 16.0), (2.97, 9.97), (4.57, 31.0), (9.75, 10.75), (8.0, 9.73), (11.57, 11.43), (2.51, 17.51), (28.37, 3.63)], [(18.68, 11.68), (27.02, 24.0), (12.49, 16.0), (2.98, 9.98), (4.58, 31.0), (9.75, 10.75), (8.0, 9.74), (11.57, 11.43), (2.52, 17.52), (28.36, 3.64)], [(18.68, 11.68), (27.03, 24.0), (12.49, 16.0), (2.98, 9.98), (4.59, 31.0), (9.74, 10.74), (8.0, 9.75), (11.56, 11.44), (2.52, 17.52), (28.36, 3.64)], [(18.67, 11.67), (27.03, 24.0), (12.48, 16.0), (2.99, 9.99), (4.59, 31.0), (9.74, 10.74), (8.0, 9.75), (11.56, 11.44), (2.53, 17.53), (28.35, 3.65)], [(18.67, 11.67), (27.04, 24.0), (12.47, 16.0), (2.99, 9.99), (4.6, 31.0), (9.73, 10.73), (8.0, 9.76), (11.55, 11.45), (2.53, 17.53), (28.35, 3.65)], [(18.67, 11.67), (27.05, 24.0), (12.47, 16.0), (3.0, 10.0), (4.61, 31.0), (9.73, 10.73), (8.0, 9.77), (11.55, 11.45), (2.54, 17.54), (28.34, 3.66)], [(18.66, 11.66), (27.05, 24.0), (12.46, 16.0), (3.0, 10.0), (4.61, 31.0), (9.72, 10.72), (8.0, 9.77), (11.54, 11.46), (2.54, 17.54), (28.34, 3.66)], [(18.66, 11.66), (27.06, 24.0), (12.45, 16.0), (3.0, 10.0), (4.62, 31.0), (9.72, 10.72), (8.0, 9.78), (11.54, 11.46), (2.55, 17.55), (28.33, 3.67)], [(18.65, 11.65), (27.07, 24.0), (12.45, 16.0), (3.01, 10.01), (4.63, 31.0), (9.71, 10.71), (8.0, 9.79), (11.53, 11.47), (2.55, 17.55), (28.33, 3.67)], [(18.65, 11.65), (27.07, 24.0), (12.44, 16.0), (3.01, 10.01), (4.63, 31.0), (9.71, 10.71), (8.0, 9.79), (11.53, 11.47), (2.56, 17.56), (28.33, 3.67)], [(18.64, 11.64), (27.08, 24.0), (12.43, 16.0), (3.02, 10.02), (4.64, 31.0), (9.7, 10.7), (8.0, 9.8), (11.52, 11.48), (2.56, 17.56), (28.32, 3.68)], [(18.64, 11.64), (27.09, 24.0), (12.43, 16.0), (3.02, 10.02), (4.65, 31.0), (9.7, 10.7), (8.0, 9.81), (11.52, 11.48), (2.57, 17.57), (28.32, 3.68)], [(18.63, 11.63), (27.09, 24.0), (12.42, 16.0), (3.03, 10.03), (4.65, 31.0), (9.69, 10.69), (8.0, 9.81), (11.51, 11.49), (2.57, 17.57), (28.31, 3.69)]]","[(9.8, 10.8), (9.8, 10.8), (9.79, 10.79), (9.79, 10.79), (9.78, 10.78), (9.78, 10.78), (9.77, 10.77), (9.77, 10.77), (9.76, 10.76), (9.76, 10.76), (9.75, 10.75), (9.75, 10.75), (9.75, 10.75), (9.74, 10.74), (9.74, 10.74), (9.73, 10.73), (9.73, 10.73), (9.72, 10.72), (9.72, 10.72), (9.71, 10.71), (9.71, 10.71), (9.7, 10.7), (9.7, 10.7), (9.69, 10.69)]",4.01,,,0.141
dynamic task,kh15_dt1,9,0,0,0,1,1.0147507116084853,10,"[[(21.0, 21.47), (29.85, 12.85), (25.4, 18.4), (23.78, 22.78), (2.0, 3.17), (14.7, 13.7), (12.83, 21.0), (17.0, 13.95), (28.96, 11.0), (28.49, 29.51)], [(21.0, 21.46), (29.84, 12.84), (25.4, 18.4), (23.77, 22.77), (2.0, 3.18), (14.7, 13.7), (12.84, 21.0), (17.0, 13.95), (28.97, 11.0), (28.49, 29.51)], [(21.0, 21.45), (29.84, 12.84), (25.41, 18.41), (23.77, 22.77), (2.0, 3.19), (14.69, 13.69), (12.85, 21.0), (17.0, 13.94), (28.97, 11.0), (28.48, 29.52)], [(21.0, 21.45), (29.83, 12.83), (25.41, 18.41), (23.76, 22.76), (2.0, 3.19), (14.69, 13.69), (12.85, 21.0), (17.0, 13.93), (28.98, 11.0), (28.48, 29.52)], [(21.0, 21.44), (29.83, 12.83), (25.42, 18.42), (23.76, 22.76), (2.0, 3.2), (14.68, 13.68), (12.86, 21.0), (17.0, 13.93), (28.99, 11.0), (28.47, 29.53)], [(21.0, 21.43), (29.83, 12.83), (25.42, 18.42), (23.75, 22.75), (2.0, 3.21), (14.68, 13.68), (12.87, 21.0), (17.0, 13.92), (28.99, 11.0), (28.47, 29.53)], [(21.0, 21.43), (29.82, 12.82), (25.42, 18.42), (23.75, 22.75), (2.0, 3.21), (14.67, 13.67), (12.87, 21.0), (17.0, 13.91), (29.0, 11.0), (28.46, 29.54)], [(21.0, 21.42), (29.82, 12.82), (25.43, 18.43), (23.75, 22.75), (2.0, 3.22), (14.67, 13.67), (12.88, 21.0), (17.0, 13.91), (29.01, 11.0), (28.46, 29.54)], [(21.0, 21.41), (29.81, 12.81), (25.43, 18.43), (23.74, 22.74), (2.0, 3.23), (14.67, 13.67), (12.89, 21.0), (17.0, 13.9), (29.01, 11.0), (28.45, 29.55)], [(21.0, 21.41), (29.81, 12.81), (25.44, 18.44), (23.74, 22.74), (2.0, 3.23), (14.66, 13.66), (12.89, 21.0), (17.0, 13.89), (29.02, 11.0), (28.45, 29.55)], [(21.0, 21.4), (29.8, 12.8), (25.44, 18.44), (23.73, 22.73), (2.0, 3.24), (14.66, 13.66), (12.9, 21.0), (17.0, 13.89), (29.03, 11.0), (28.44, 29.56)], [(21.0, 21.39), (29.8, 12.8), (25.45, 18.45), (23.73, 22.73), (2.0, 3.25), (14.65, 13.65), (12.91, 21.0), (17.0, 13.88), (29.03, 11.0), (28.44, 29.56)], [(21.0, 21.39), (29.79, 12.79), (25.45, 18.45), (23.72, 22.72), (2.0, 3.25), (14.65, 13.65), (12.91, 21.0), (17.0, 13.87), (29.04, 11.0), (28.43, 29.57)], [(21.0, 21.38), (29.79, 12.79), (25.46, 18.46), (23.72, 22.72), (2.0, 3.26), (14.64, 13.64), (12.92, 21.0), (17.0, 13.87), (29.05, 11.0), (28.43, 29.57)], [(21.0, 21.37), (29.78, 12.78), (25.46, 18.46), (23.71, 22.71), (2.0, 3.27), (14.64, 13.64), (12.93, 21.0), (17.0, 13.86), (29.05, 11.0), (28.42, 29.58)], [(21.0, 21.37), (29.78, 12.78), (25.47, 18.47), (23.71, 22.71), (2.0, 3.27), (14.63, 13.63), (12.93, 21.0), (17.0, 13.85), (29.06, 11.0), (28.42, 29.58)], [(21.0, 21.36), (29.77, 12.77), (25.47, 18.47), (23.7, 22.7), (2.0, 3.28), (14.63, 13.63), (12.94, 21.0), (17.0, 13.85), (29.07, 11.0), (28.42, 29.58)], [(21.0, 21.35), (29.77, 12.77), (25.48, 18.48), (23.7, 22.7), (2.0, 3.29), (14.62, 13.62), (12.95, 21.0), (17.0, 13.84), (29.07, 11.0), (28.41, 29.59)]]",,0.0,,,0.806
dynamic task,kh15_dt1,10,1,0,1,1,1.3336941034986012,10,"[[(28.75, 19.75), (23.66, 28.34), (5.0, 29.48), (25.33, 26.67), (15.0, 26.77), (26.48, 7.52), (24.0, 14.89), (15.68, 27.68), (11.74, 20.74), (16.0, 20.26)], [(28.76, 19.76), (23.66, 28.34), (5.0, 29.47), (25.33, 26.67), (15.0, 26.76), (26.48, 7.52), (24.0, 14.89), (15.67, 27.67), (11.73, 20.73), (16.0, 20.25)], [(28.76, 19.76), (23.67, 28.33), (5.0, 29.47), (25.33, 26.67), (15.0, 26.75), (26.47, 7.53), (24.0, 14.88), (15.67, 27.67), (11.73, 20.73), (16.0, 20.25)], [(28.77, 19.77), (23.67, 28.33), (5.0, 29.46), (25.34, 26.66), (15.0, 26.75), (26.47, 7.53), (24.0, 14.87), (15.67, 27.67), (11.72, 20.72), (16.0, 20.24)], [(28.77, 19.77), (23.67, 28.33), (5.0, 29.45), (25.34, 26.66), (15.0, 26.74), (26.46, 7.54), (24.0, 14.87), (15.66, 27.66), (11.72, 20.72), (16.0, 20.23)], [(28.78, 19.78), (23.68, 28.32), (5.0, 29.45), (25.35, 26.65), (15.0, 26.73), (26.46, 7.54), (24.0, 14.86), (15.66, 27.66), (11.71, 20.71), (16.0, 20.23)], [(28.78, 19.78), (23.68, 28.32), (5.0, 29.44), (25.35, 26.65), (15.0, 26.73), (26.45, 7.55), (24.0, 14.85), (15.65, 27.65), (11.71, 20.71), (16.0, 20.22)], [(28.79, 19.79), (23.69, 28.31), (5.0, 29.43), (25.36, 26.64), (15.0, 26.72), (26.45, 7.55), (24.0, 14.85), (15.65, 27.65), (11.7, 20.7), (16.0, 20.21)], [(28.79, 19.79), (23.69, 28.31), (5.0, 29.43), (25.36, 26.64), (15.0, 26.71), (26.44, 7.56), (24.0, 14.84), (15.64, 27.64), (11.7, 20.7), (16.0, 20.21)], [(28.8, 19.8), (23.7, 28.3), (5.0, 29.42), (25.37, 26.63), (15.0, 26.71), (26.44, 7.56), (24.0, 14.83), (15.64, 27.64), (11.69, 20.69), (16.0, 20.2)], [(28.8, 19.8), (23.7, 28.3), (5.0, 29.41), (25.37, 26.63), (15.0, 26.7), (26.43, 7.57), (24.0, 14.83), (15.63, 27.63), (11.69, 20.69), (16.0, 20.19)], [(28.81, 19.81), (23.71, 28.29), (5.0, 29.41), (25.38, 26.62), (15.0, 26.69), (26.43, 7.57), (24.0, 14.82), (15.63, 27.63), (11.68, 20.68), (16.0, 20.19)], [(28.81, 19.81), (23.71, 28.29), (5.0, 29.4), (25.38, 26.62), (15.0, 26.69), (26.42, 7.58), (24.0, 14.81), (15.62, 27.62), (11.68, 20.68), (16.0, 20.18)], [(28.82, 19.82), (23.72, 28.28), (5.0, 29.39), (25.39, 26.61), (15.0, 26.68), (26.42, 7.58), (24.0, 14.81), (15.62, 27.62), (11.67, 20.67), (16.0, 20.17)], [(28.82, 19.82), (23.72, 28.28), (5.0, 29.39), (25.39, 26.61), (15.0, 26.67), (26.42, 7.58), (24.0, 14.8), (15.61, 27.61), (11.67, 20.67), (16.0, 20.17)], [(28.83, 19.83), (23.73, 28.27), (5.0, 29.38), (25.4, 26.6), (15.0, 26.67), (26.41, 7.59), (24.0, 14.79), (15.61, 27.61), (11.67, 20.67), (16.0, 20.16)], [(28.83, 19.83), (23.73, 28.27), (5.0, 29.37), (25.4, 26.6), (15.0, 26.66), (26.41, 7.59), (24.0, 14.79), (15.6, 27.6), (11.66, 20.66), (16.0, 20.15)], [(28.83, 19.83), (23.74, 28.26), (5.0, 29.37), (25.41, 26.59), (15.0, 26.65), (26.4, 7.6), (24.0, 14.78), (15.6, 27.6), (11.66, 20.66), (16.0, 20.15)], [(28.84, 19.84), (23.74, 28.26), (5.0, 29.36), (25.41, 26.59), (15.0, 26.65), (26.4, 7.6), (24.0, 14.77), (15.59, 27.59), (11.65, 20.65), (16.0, 20.14)], [(28.84, 19.84), (23.75, 28.25), (5.0, 29.35), (25.42, 26.58), (15.0, 26.64), (26.39, 7.61), (24.0, 14.77), (15.59, 27.59), (11.65, 20.65), (16.0, 20.13)], [(28.85, 19.85), (23.75, 28.25), (5.0, 29.35), (25.42, 26.58), (15.0, 26.63), (26.39, 7.61), (24.0, 14.76), (15.58, 27.58), (11.64, 20.64), (16.0, 20.13)], [(28.85, 19.85), (23.75, 28.25), (5.0, 29.34), (25.42, 26.58), (15.0, 26.63), (26.38, 7.62), (24.0, 14.75), (15.58, 27.58), (11.64, 20.64), (16.0, 20.12)], [(28.86, 19.86), (23.76, 28.24), (5.0, 29.33), (25.43, 26.57), (15.0, 26.62), (26.38, 7.62), (24.0, 14.75), (15.58, 27.58), (11.63, 20.63), (16.0, 20.11)], [(28.86, 19.86), (23.76, 28.24), (5.0, 29.33), (25.43, 26.57), (15.0, 26.61), (26.37, 7.63), (24.0, 14.74), (15.57, 27.57), (11.63, 20.63), (16.0, 20.11)]]","[(15.0, 26.77), (15.0, 26.76), (15.0, 26.75), (15.0, 26.75), (15.0, 26.74), (15.0, 26.73), (15.0, 26.73), (15.0, 26.72), (15.0, 26.71), (15.0, 26.71), (15.0, 26.7), (15.0, 26.69), (15.0, 26.69), (15.0, 26.68), (15.0, 26.67), (15.0, 26.67), (15.0, 26.66), (15.0, 26.65), (15.0, 26.65), (15.0, 26.64), (15.0, 26.63), (15.0, 26.63), (15.0, 26.62), (15.0, 26.61)]",4.06,,,1.104
dynamic task,kh15_dt1,11,0,0,0,1,1.31474186539117,10,"[[(30.07, 12.93), (28.8, 4.8), (2.0, 4.45), (24.61, 14.0), (4.0, 20.27), (8.36, 4.64), (27.0, 9.97), (25.0, 20.71), (23.82, 7.18), (25.22, 15.78)], [(30.06, 12.94), (28.81, 4.81), (2.0, 4.45), (24.6, 14.0), (4.0, 20.27), (8.36, 4.64), (27.0, 9.98), (25.0, 20.7), (23.82, 7.18), (25.23, 15.77)], [(30.06, 12.94), (28.81, 4.81), (2.0, 4.46), (24.59, 14.0), (4.0, 20.26), (8.35, 4.65), (27.0, 9.99), (25.0, 20.69), (23.81, 7.19), (25.23, 15.77)], [(30.05, 12.95), (28.82, 4.82), (2.0, 4.47), (24.59, 14.0), (4.0, 20.25), (8.35, 4.65), (27.0, 9.99), (25.0, 20.69), (23.81, 7.19), (25.24, 15.76)], [(30.05, 12.95), (28.82, 4.82), (2.0, 4.47), (24.58, 14.0), (4.0, 20.25), (8.34, 4.66), (27.0, 10.0), (25.0, 20.68), (23.8, 7.2), (25.24, 15.76)], [(30.04, 12.96), (28.83, 4.83), (2.0, 4.48), (24.57, 14.0), (4.0, 20.24), (8.34, 4.66), (27.0, 10.01), (25.0, 20.67), (23.8, 7.2), (25.25, 15.75)], [(30.04, 12.96), (28.83, 4.83), (2.0, 4.49), (24.57, 14.0), (4.0, 20.23), (8.33, 4.67), (27.0, 10.01), (25.0, 20.67), (23.79, 7.21), (25.25, 15.75)], [(30.03, 12.97), (28.83, 4.83), (2.0, 4.49), (24.56, 14.0), (4.0, 20.23), (8.33, 4.67), (27.0, 10.02), (25.0, 20.66), (23.79, 7.21), (25.25, 15.75)], [(30.03, 12.97), (28.84, 4.84), (2.0, 4.5), (24.55, 14.0), (4.0, 20.22), (8.33, 4.67), (27.0, 10.03), (25.0, 20.65), (23.78, 7.22), (25.26, 15.74)], [(30.02, 12.98), (28.84, 4.84), (2.0, 4.51), (24.55, 14.0), (4.0, 20.21), (8.32, 4.68), (27.0, 10.03), (25.0, 20.65), (23.78, 7.22), (25.26, 15.74)], [(30.02, 12.98), (28.85, 4.85), (2.0, 4.51), (24.54, 14.0), (4.0, 20.21), (8.32, 4.68), (27.0, 10.04), (25.0, 20.64), (23.77, 7.23), (25.27, 15.73)], [(30.01, 12.99), (28.85, 4.85), (2.0, 4.52), (24.53, 14.0), (4.0, 20.2), (8.31, 4.69), (27.0, 10.05), (25.0, 20.63), (23.77, 7.23), (25.27, 15.73)], [(30.01, 12.99), (28.86, 4.86), (2.0, 4.53), (24.53, 14.0), (4.0, 20.19), (8.31, 4.69), (27.0, 10.05), (25.0, 20.63), (23.76, 7.24), (25.28, 15.72)], [(30.0, 13.0), (28.86, 4.86), (2.0, 4.53), (24.52, 14.0), (4.0, 20.19), (8.3, 4.7), (27.0, 10.06), (25.0, 20.62), (23.76, 7.24), (25.28, 15.72)], [(30.0, 13.0), (28.87, 4.87), (2.0, 4.54), (24.51, 14.0), (4.0, 20.18), (8.3, 4.7), (27.0, 10.07), (25.0, 20.61), (23.75, 7.25), (25.29, 15.71)], [(30.0, 13.0), (28.87, 4.87), (2.0, 4.55), (24.51, 14.0), (4.0, 20.17), (8.29, 4.71), (27.0, 10.07), (25.0, 20.61), (23.75, 7.25), (25.29, 15.71)], [(29.99, 13.01), (28.88, 4.88), (2.0, 4.55), (24.5, 14.0), (4.0, 20.17), (8.29, 4.71), (27.0, 10.08), (25.0, 20.6), (23.75, 7.25), (25.3, 15.7)], [(29.99, 13.01), (28.88, 4.88), (2.0, 4.56), (24.49, 14.0), (4.0, 20.16), (8.28, 4.72), (27.0, 10.09), (25.0, 20.59), (23.74, 7.26), (25.3, 15.7)], [(29.98, 13.02), (28.89, 4.89), (2.0, 4.57), (24.49, 14.0), (4.0, 20.15), (8.28, 4.72), (27.0, 10.09), (25.0, 20.59), (23.74, 7.26), (25.31, 15.69)], [(29.98, 13.02), (28.89, 4.89), (2.0, 4.57), (24.48, 14.0), (4.0, 20.15), (8.27, 4.73), (27.0, 10.1), (25.0, 20.58), (23.73, 7.27), (25.31, 15.69)], [(29.97, 13.03), (28.9, 4.9), (2.0, 4.58), (24.47, 14.0), (4.0, 20.14), (8.27, 4.73), (27.0, 10.11), (25.0, 20.57), (23.73, 7.27), (25.32, 15.68)], [(29.97, 13.03), (28.9, 4.9), (2.0, 4.59), (24.47, 14.0), (4.0, 20.13), (8.26, 4.74), (27.0, 10.11), (25.0, 20.57), (23.72, 7.28), (25.32, 15.68)], [(29.96, 13.04), (28.91, 4.91), (2.0, 4.59), (24.46, 14.0), (4.0, 20.13), (8.26, 4.74), (27.0, 10.12), (25.0, 20.56), (23.72, 7.28), (25.33, 15.67)], [(29.96, 13.04), (28.91, 4.91), (2.0, 4.6), (24.45, 14.0), (4.0, 20.12), (8.25, 4.75), (27.0, 10.13), (25.0, 20.55), (23.71, 7.29), (25.33, 15.67)]]",,0.0,,,2.208
dynamic task,kh15_dt1,12,0,0,0,1,1.5242783150770265,10,"[[(3.56, 14.56), (8.29, 21.0), (3.0, 4.83), (30.39, 18.0), (26.51, 2.51), (27.33, 19.0), (28.82, 30.18), (29.58, 13.58), (12.09, 18.0), (16.31, 20.31)], [(3.57, 14.57), (8.29, 21.0), (3.0, 4.82), (30.39, 18.0), (26.52, 2.52), (27.32, 19.0), (28.82, 30.18), (29.58, 13.58), (12.08, 18.0), (16.3, 20.3)], [(3.57, 14.57), (8.28, 21.0), (3.0, 4.81), (30.38, 18.0), (26.52, 2.52), (27.31, 19.0), (28.81, 30.19), (29.58, 13.58), (12.07, 18.0), (16.3, 20.3)], [(3.58, 14.58), (8.27, 21.0), (3.0, 4.81), (30.37, 18.0), (26.53, 2.53), (27.31, 19.0), (28.81, 30.19), (29.57, 13.57), (12.07, 18.0), (16.29, 20.29)], [(3.58, 14.58), (8.27, 21.0), (3.0, 4.8), (30.37, 18.0), (26.53, 2.53), (27.3, 19.0), (28.8, 30.2), (29.57, 13.57), (12.06, 18.0), (16.29, 20.29)], [(3.58, 14.58), (8.26, 21.0), (3.0, 4.79), (30.36, 18.0), (26.54, 2.54), (27.29, 19.0), (28.8, 30.2), (29.56, 13.56), (12.05, 18.0), (16.28, 20.28)], [(3.59, 14.59), (8.25, 21.0), (3.0, 4.79), (30.35, 18.0), (26.54, 2.54), (27.29, 19.0), (28.79, 30.21), (29.56, 13.56), (12.05, 18.0), (16.28, 20.28)], [(3.59, 14.59), (8.25, 21.0), (3.0, 4.78), (30.35, 18.0), (26.55, 2.55), (27.28, 19.0), (28.79, 30.21), (29.55, 13.55), (12.04, 18.0), (16.27, 20.27)], [(3.6, 14.6), (8.24, 21.0), (3.0, 4.77), (30.34, 18.0), (26.55, 2.55), (27.27, 19.0), (28.78, 30.22), (29.55, 13.55), (12.03, 18.0), (16.27, 20.27)], [(3.6, 14.6), (8.23, 21.0), (3.0, 4.77), (30.33, 18.0), (26.56, 2.56), (27.27, 19.0), (28.78, 30.22), (29.54, 13.54), (12.03, 18.0), (16.26, 20.26)], [(3.61, 14.61), (8.23, 21.0), (3.0, 4.76), (30.33, 18.0), (26.56, 2.56), (27.26, 19.0), (28.77, 30.23), (29.54, 13.54), (12.02, 18.0), (16.26, 20.26)], [(3.61, 14.61), (8.22, 21.0), (3.0, 4.75), (30.32, 18.0), (26.57, 2.57), (27.25, 19.0), (28.77, 30.23), (29.53, 13.53), (12.01, 18.0), (16.25, 20.25)], [(3.62, 14.62), (8.21, 21.0), (3.0, 4.75), (30.31, 18.0), (26.57, 2.57), (27.25, 19.0), (28.76, 30.24), (29.53, 13.53), (12.01, 18.0), (16.25, 20.25)], [(3.62, 14.62), (8.21, 21.0), (3.0, 4.74), (30.31, 18.0), (26.58, 2.58), (27.24, 19.0), (28.76, 30.24), (29.52, 13.52), (12.0, 18.0), (16.25, 20.25)], [(3.63, 14.63), (8.2, 21.0), (3.0, 4.73), (30.3, 18.0), (26.58, 2.58), (27.23, 19.0), (28.75, 30.25), (29.52, 13.52), (11.99, 18.0), (16.24, 20.24)], [(3.63, 14.63), (8.19, 21.0), (3.0, 4.73), (30.29, 18.0), (26.58, 2.58), (27.23, 19.0), (28.75, 30.25), (29.51, 13.51), (11.99, 18.0), (16.24, 20.24)], [(3.64, 14.64), (8.19, 21.0), (3.0, 4.72), (30.29, 18.0), (26.59, 2.59), (27.22, 19.0), (28.75, 30.25), (29.51, 13.51), (11.98, 18.0), (16.23, 20.23)], [(3.64, 14.64), (8.18, 21.0), (3.0, 4.71), (30.28, 18.0), (26.59, 2.59), (27.21, 19.0), (28.74, 30.26), (29.5, 13.5), (11.97, 18.0), (16.23, 20.23)], [(3.65, 14.65), (8.17, 21.0), (3.0, 4.71), (30.27, 18.0), (26.6, 2.6), (27.21, 19.0), (28.74, 30.26), (29.5, 13.5), (11.97, 18.0), (16.22, 20.22)], [(3.65, 14.65), (8.17, 21.0), (3.0, 4.7), (30.27, 18.0), (26.6, 2.6), (27.2, 19.0), (28.73, 30.27), (29.5, 13.5), (11.96, 18.0), (16.22, 20.22)], [(3.66, 14.66), (8.16, 21.0), (3.0, 4.69), (30.26, 18.0), (26.61, 2.61), (27.19, 19.0), (28.73, 30.27), (29.49, 13.49), (11.95, 18.0), (16.21, 20.21)], [(3.66, 14.66), (8.15, 21.0), (3.0, 4.69), (30.25, 18.0), (26.61, 2.61), (27.19, 19.0), (28.72, 30.28), (29.49, 13.49), (11.95, 18.0), (16.21, 20.21)], [(3.67, 14.67), (8.15, 21.0), (3.0, 4.68), (30.25, 18.0), (26.62, 2.62), (27.18, 19.0), (28.72, 30.28), (29.48, 13.48), (11.94, 18.0), (16.2, 20.2)], [(3.67, 14.67), (8.14, 21.0), (3.0, 4.67), (30.24, 18.0), (26.62, 2.62), (27.17, 19.0), (28.71, 30.29), (29.48, 13.48), (11.93, 18.0), (16.2, 20.2)], [(3.67, 14.67), (8.13, 21.0), (3.0, 4.67), (30.23, 18.0), (26.63, 2.63), (27.17, 19.0), (28.71, 30.29), (29.47, 13.47), (11.93, 18.0), (16.19, 20.19)], [(3.68, 14.68), (8.13, 21.0), (3.0, 4.66), (30.23, 18.0), (26.63, 2.63), (27.16, 19.0), (28.7, 30.3), (29.47, 13.47), (11.92, 18.0), (16.19, 20.19)], [(3.68, 14.68), (8.12, 21.0), (3.0, 4.65), (30.22, 18.0), (26.64, 2.64), (27.15, 19.0), (28.7, 30.3), (29.46, 13.46), (11.91, 18.0), (16.18, 20.18)], [(3.69, 14.69), (8.11, 21.0), (3.0, 4.65), (30.21, 18.0), (26.64, 2.64), (27.15, 19.0), (28.69, 30.31), (29.46, 13.46), (11.91, 18.0), (16.18, 20.18)]]",,0.0,,,2.378
dynamic task,kh15_dt1,13,0,0,0,1,1.1716900001056274,10,"[[(7.03, 22.0), (24.53, 10.0), (16.27, 12.0), (4.31, 22.0), (21.23, 13.0), (19.0, 22.65), (14.22, 19.0), (17.51, 10.0), (18.42, 8.59), (8.33, 17.0)], [(7.02, 22.0), (24.54, 10.0), (16.28, 12.0), (4.32, 22.0), (21.23, 13.0), (19.0, 22.65), (14.23, 19.0), (17.51, 10.0), (18.42, 8.58), (8.33, 17.0)], [(7.01, 22.0), (24.55, 10.0), (16.29, 12.0), (4.33, 22.0), (21.22, 13.0), (19.0, 22.64), (14.23, 19.0), (17.5, 10.0), (18.42, 8.58), (8.34, 17.0)], [(7.01, 22.0), (24.55, 10.0), (16.29, 12.0), (4.33, 22.0), (21.21, 13.0), (19.0, 22.63), (14.24, 19.0), (17.49, 10.0), (18.43, 8.57), (8.35, 17.0)], [(7.0, 22.0), (24.56, 10.0), (16.3, 12.0), (4.34, 22.0), (21.21, 13.0), (19.0, 22.63), (14.25, 19.0), (17.49, 10.0), (18.43, 8.57), (8.35, 17.0)], [(6.99, 22.0), (24.57, 10.0), (16.31, 12.0), (4.35, 22.0), (21.2, 13.0), (19.0, 22.62), (14.25, 19.0), (17.48, 10.0), (18.44, 8.56), (8.36, 17.0)], [(6.99, 22.0), (24.57, 10.0), (16.31, 12.0), (4.35, 22.0), (21.19, 13.0), (19.0, 22.61), (14.26, 19.0), (17.47, 10.0), (18.44, 8.56), (8.37, 17.0)], [(6.98, 22.0), (24.58, 10.0), (16.32, 12.0), (4.36, 22.0), (21.19, 13.0), (19.0, 22.61), (14.27, 19.0), (17.47, 10.0), (18.45, 8.55), (8.37, 17.0)], [(6.97, 22.0), (24.59, 10.0), (16.33, 12.0), (4.37, 22.0), (21.18, 13.0), (19.0, 22.6), (14.27, 19.0), (17.46, 10.0), (18.45, 8.55), (8.38, 17.0)], [(6.97, 22.0), (24.59, 10.0), (16.33, 12.0), (4.37, 22.0), (21.17, 13.0), (19.0, 22.59), (14.28, 19.0), (17.45, 10.0), (18.46, 8.54), (8.39, 17.0)], [(6.96, 22.0), (24.6, 10.0), (16.34, 12.0), (4.38, 22.0), (21.17, 13.0), (19.0, 22.59), (14.29, 19.0), (17.45, 10.0), (18.46, 8.54), (8.39, 17.0)], [(6.95, 22.0), (24.61, 10.0), (16.35, 12.0), (4.39, 22.0), (21.16, 13.0), (19.0, 22.58), (14.29, 19.0), (17.44, 10.0), (18.47, 8.53), (8.4, 17.0)], [(6.95, 22.0), (24.61, 10.0), (16.35, 12.0), (4.39, 22.0), (21.15, 13.0), (19.0, 22.57), (14.3, 19.0), (17.43, 10.0), (18.47, 8.53), (8.41, 17.0)], [(6.94, 22.0), (24.62, 10.0), (16.36, 12.0), (4.4, 22.0), (21.15, 13.0), (19.0, 22.57), (14.31, 19.0), (17.43, 10.0), (18.48, 8.52), (8.41, 17.0)], [(6.93, 22.0), (24.63, 10.0), (16.37, 12.0), (4.41, 22.0), (21.14, 13.0), (19.0, 22.56), (14.31, 19.0), (17.42, 10.0), (18.48, 8.52), (8.42, 17.0)], [(6.93, 22.0), (24.63, 10.0), (16.37, 12.0), (4.41, 22.0), (21.13, 13.0), (19.0, 22.55), (14.32, 19.0), (17.41, 10.0), (18.49, 8.51), (8.43, 17.0)], [(6.92, 22.0), (24.64, 10.0), (16.38, 12.0), (4.42, 22.0), (21.13, 13.0), (19.0, 22.55), (14.33, 19.0), (17.41, 10.0), (18.49, 8.51), (8.43, 17.0)], [(6.91, 22.0), (24.65, 10.0), (16.39, 12.0), (4.43, 22.0), (21.12, 13.0), (19.0, 22.54), (14.33, 19.0), (17.4, 10.0), (18.5, 8.5), (8.44, 17.0)], [(6.91, 22.0), (24.65, 10.0), (16.39, 12.0), (4.43, 22.0), (21.11, 13.0), (19.0, 22.53), (14.34, 19.0), (17.39, 10.0), (18.5, 8.5), (8.45, 17.0)], [(6.9, 22.0), (24.66, 10.0), (16.4, 12.0), (4.44, 22.0), (21.11, 13.0), (19.0, 22.53), (14.35, 19.0), (17.39, 10.0), (18.5, 8.5), (8.45, 17.0)], [(6.89, 22.0), (24.67, 10.0), (16.41, 12.0), (4.45, 22.0), (21.1, 13.0), (19.0, 22.52), (14.35, 19.0), (17.38, 10.0), (18.51, 8.49), (8.46, 17.0)]]",,0.0,,,0.424
dynamic task,kh15_dt1,14,1,0,1,1,0.8839049193784376,10,"[[(28.28, 21.72), (20.79, 8.0), (19.28, 30.28), (27.42, 10.58), (20.73, 12.0), (8.82, 31.18), (15.93, 18.0), (29.0, 27.95), (20.0, 28.33), (25.67, 8.33)], [(28.29, 21.71), (20.78, 8.0), (19.29, 30.29), (27.41, 10.59), (20.74, 12.0), (8.83, 31.17), (15.93, 18.0), (29.0, 27.94), (20.0, 28.34), (25.67, 8.33)], [(28.29, 21.71), (20.77, 8.0), (19.29, 30.29), (27.41, 10.59), (20.75, 12.0), (8.83, 31.17), (15.92, 18.0), (29.0, 27.93), (20.0, 28.35), (25.66, 8.34)], [(28.3, 21.7), (20.77, 8.0), (19.3, 30.3), (27.4, 10.6), (20.75, 12.0), (8.83, 31.17), (15.91, 18.0), (29.0, 27.93), (20.0, 28.35), (25.66, 8.34)], [(28.3, 21.7), (20.76, 8.0), (19.3, 30.3), (27.4, 10.6), (20.76, 12.0), (8.84, 31.16), (15.91, 18.0), (29.0, 27.92), (20.0, 28.36), (25.65, 8.35)], [(28.31, 21.69), (20.75, 8.0), (19.31, 30.31), (27.39, 10.61), (20.77, 12.0), (8.84, 31.16), (15.9, 18.0), (29.0, 27.91), (20.0, 28.37), (25.65, 8.35)], [(28.31, 21.69), (20.75, 8.0), (19.31, 30.31), (27.39, 10.61), (20.77, 12.0), (8.85, 31.15), (15.89, 18.0), (29.0, 27.91), (20.0, 28.37), (25.64, 8.36)], [(28.32, 21.68), (20.74, 8.0), (19.32, 30.32), (27.38, 10.62), (20.78, 12.0), (8.85, 31.15), (15.89, 18.0), (29.0, 27.9), (20.0, 28.38), (25.64, 8.36)], [(28.32, 21.68), (20.73, 8.0), (19.32, 30.32), (27.38, 10.62), (20.79, 12.0), (8.86, 31.14), (15.88, 18.0), (29.0, 27.89), (20.0, 28.39), (25.63, 8.37)], [(28.33, 21.67), (20.73, 8.0), (19.33, 30.33), (27.37, 10.63), (20.79, 12.0), (8.86, 31.14), (15.87, 18.0), (29.0, 27.89), (20.0, 28.39), (25.63, 8.37)], [(28.33, 21.67), (20.72, 8.0), (19.33, 30.33), (27.37, 10.63), (20.8, 12.0), (8.87, 31.13), (15.87, 18.0), (29.0, 27.88), (20.0, 28.4), (25.62, 8.38)], [(28.33, 21.67), (20.71, 8.0), (19.33, 30.33), (27.36, 10.64), (20.81, 12.0), (8.87, 31.13), (15.86, 18.0), (29.0, 27.87), (20.0, 28.41), (25.62, 8.38)], [(28.34, 21.66), (20.71, 8.0), (19.34, 30.34), (27.36, 10.64), (20.81, 12.0), (8.88, 31.12), (15.85, 18.0), (29.0, 27.87), (20.0, 28.41), (25.61, 8.39)], [(28.34, 21.66), (20.7, 8.0), (19.34, 30.34), (27.35, 10.65), (20.82, 12.0), (8.88, 31.12), (15.85, 18.0), (29.0, 27.86), (20.0, 28.42), (25.61, 8.39)], [(28.35, 21.65), (20.69, 8.0), (19.35, 30.35), (27.35, 10.65), (20.83, 12.0), (8.89, 31.11), (15.84, 18.0), (29.0, 27.85), (20.0, 28.43), (25.6, 8.4)]]","[(19.28, 30.28), (19.29, 30.29), (19.29, 30.29), (19.3, 30.3), (19.3, 30.3), (19.31, 30.31), (19.31, 30.31), (19.32, 30.32), (19.32, 30.32), (19.33, 30.33), (19.33, 30.33), (19.33, 30.33), (19.34, 30.34), (19.34, 30.34), (19.35, 30.35)]",3.74,,,0.501
dynamic task,kh15_dt1,15,1,0,1,1,1.2836478386361705,10,"[[(24.97, 3.03), (13.72, 13.72), (14.38, 8.38), (5.69, 14.0), (8.0, 22.0), (18.05, 17.0), (11.92, 31.08), (12.59, 13.0), (24.71, 18.0), (18.93, 14.93)], [(24.96, 3.04), (13.73, 13.73), (14.38, 8.38), (5.69, 14.0), (8.01, 22.01), (18.05, 17.0), (11.92, 31.08), (12.59, 13.0), (24.7, 18.0), (18.93, 14.93)], [(24.96, 3.04), (13.73, 13.73), (14.39, 8.39), (5.68, 14.0), (8.01, 22.01), (18.04, 17.0), (11.92, 31.08), (12.58, 13.0), (24.69, 18.0), (18.94, 14.94)], [(24.95, 3.05), (13.74, 13.74), (14.39, 8.39), (5.67, 14.0), (8.02, 22.02), (18.03, 17.0), (11.91, 31.09), (12.57, 13.0), (24.69, 18.0), (18.94, 14.94)], [(24.95, 3.05), (13.74, 13.74), (14.4, 8.4), (5.67, 14.0), (8.02, 22.02), (18.03, 17.0), (11.91, 31.09), (12.57, 13.0), (24.68, 18.0), (18.95, 14.95)], [(24.94, 3.06), (13.75, 13.75), (14.4, 8.4), (5.66, 14.0), (8.03, 22.03), (18.02, 17.0), (11.9, 31.1), (12.56, 13.0), (24.67, 18.0), (18.95, 14.95)], [(24.94, 3.06), (13.75, 13.75), (14.41, 8.41), (5.65, 14.0), (8.03, 22.03), (18.01, 17.0), (11.9, 31.1), (12.55, 13.0), (24.67, 18.0), (18.96, 14.96)], [(24.93, 3.07), (13.75, 13.75), (14.41, 8.41), (5.65, 14.0), (8.04, 22.04), (18.01, 17.0), (11.89, 31.11), (12.55, 13.0), (24.66, 18.0), (18.96, 14.96)], [(24.93, 3.07), (13.76, 13.76), (14.42, 8.41), (5.64, 14.0), (8.04, 22.04), (18.0, 17.0), (11.89, 31.11), (12.54, 13.0), (24.65, 18.0), (18.97, 14.97)], [(24.92, 3.08), (13.76, 13.76), (14.42, 8.42), (5.63, 14.0), (8.05, 22.05), (17.99, 17.0), (11.88, 31.12), (12.53, 13.0), (24.65, 18.0), (18.97, 14.97)], [(24.92, 3.08), (13.77, 13.77), (14.42, 8.42), (5.63, 14.0), (8.05, 22.05), (17.99, 17.0), (11.88, 31.12), (12.53, 13.0), (24.64, 18.0), (18.98, 14.98)], [(24.92, 3.08), (13.77, 13.77), (14.43, 8.43), (5.62, 14.0), (8.06, 22.06), (17.98, 17.0), (11.87, 31.13), (12.52, 13.0), (24.63, 18.0), (18.98, 14.98)], [(24.91, 3.09), (13.78, 13.78), (14.43, 8.43), (5.61, 14.0), (8.06, 22.06), (17.97, 17.0), (11.87, 31.13), (12.51, 13.0), (24.63, 18.0), (18.99, 14.99)], [(24.91, 3.09), (13.78, 13.78), (14.44, 8.44), (5.61, 14.0), (8.07, 22.07), (17.97, 17.0), (11.86, 31.14), (12.51, 13.0), (24.62, 18.0), (18.99, 14.99)], [(24.9, 3.1), (13.79, 13.79), (14.44, 8.44), (5.6, 14.0), (8.07, 22.07), (17.96, 17.0), (11.86, 31.14), (12.5, 13.0), (24.61, 18.0), (19.0, 15.0)], [(24.9, 3.1), (13.79, 13.79), (14.45, 8.45), (5.59, 14.0), (8.08, 22.08), (17.95, 17.0), (11.85, 31.15), (12.49, 13.0), (24.61, 18.0), (19.0, 15.0)], [(24.89, 3.11), (13.8, 13.8), (14.45, 8.45), (5.59, 14.0), (8.08, 22.08), (17.95, 17.0), (11.85, 31.15), (12.49, 13.0), (24.6, 18.0), (19.0, 15.0)], [(24.89, 3.11), (13.8, 13.8), (14.46, 8.46), (5.58, 14.0), (8.08, 22.08), (17.94, 17.0), (11.84, 31.16), (12.48, 13.0), (24.59, 18.0), (19.01, 15.01)], [(24.88, 3.12), (13.81, 13.81), (14.46, 8.46), (5.57, 14.0), (8.09, 22.09), (17.93, 17.0), (11.84, 31.16), (12.47, 13.0), (24.59, 18.0), (19.01, 15.01)], [(24.88, 3.12), (13.81, 13.81), (14.47, 8.47), (5.57, 14.0), (8.09, 22.09), (17.93, 17.0), (11.83, 31.17), (12.47, 13.0), (24.58, 18.0), (19.02, 15.02)], [(24.87, 3.13), (13.82, 13.82), (14.47, 8.47), (5.56, 14.0), (8.1, 22.1), (17.92, 17.0), (11.83, 31.17), (12.46, 13.0), (24.57, 18.0), (19.02, 15.02)], [(24.87, 3.13), (13.82, 13.82), (14.48, 8.48), (5.55, 14.0), (8.1, 22.1), (17.91, 17.0), (11.83, 31.17), (12.45, 13.0), (24.57, 18.0), (19.03, 15.03)], [(24.86, 3.14), (13.83, 13.83), (14.48, 8.48), (5.55, 14.0), (8.11, 22.11), (17.91, 17.0), (11.82, 31.18), (12.45, 13.0), (24.56, 18.0), (19.03, 15.03)]]","[(5.69, 14.0), (5.69, 14.0), (5.68, 14.0), (5.67, 14.0), (5.67, 14.0), (5.66, 14.0), (5.65, 14.0), (5.65, 14.0), (5.64, 14.0), (5.63, 14.0), (5.63, 14.0), (5.62, 14.0), (5.61, 14.0), (5.61, 14.0), (5.6, 14.0), (5.59, 14.0), (5.59, 14.0), (5.58, 14.0), (5.57, 14.0), (5.57, 14.0), (5.56, 14.0), (5.55, 14.0), (5.55, 14.0)]",3.71,,,1.028
dynamic task,kh15_dt1,16,1,0,1,1,0.7316720459821227,10,"[[(17.83, 8.17), (18.25, 13.75), (11.0, 10.71), (29.41, 14.59), (21.1, 28.1), (29.0, 5.34), (18.68, 20.32), (28.69, 17.69), (25.27, 26.0), (25.32, 25.32)], [(17.83, 8.17), (18.25, 13.75), (11.0, 10.72), (29.42, 14.58), (21.11, 28.11), (29.0, 5.35), (18.67, 20.33), (28.69, 17.69), (25.28, 26.0), (25.32, 25.32)], [(17.83, 8.17), (18.26, 13.74), (11.0, 10.73), (29.42, 14.58), (21.11, 28.11), (29.0, 5.35), (18.67, 20.33), (28.68, 17.68), (25.29, 26.0), (25.33, 25.33)], [(17.82, 8.18), (18.26, 13.74), (11.0, 10.73), (29.42, 14.58), (21.12, 28.12), (29.0, 5.36), (18.67, 20.33), (28.68, 17.68), (25.29, 26.0), (25.33, 25.33)], [(17.82, 8.18), (18.27, 13.73), (11.0, 10.74), (29.43, 14.57), (21.12, 28.12), (29.0, 5.37), (18.66, 20.34), (28.67, 17.67), (25.3, 26.0), (25.33, 25.33)], [(17.81, 8.19), (18.27, 13.73), (11.0, 10.75), (29.43, 14.57), (21.13, 28.13), (29.0, 5.37), (18.66, 20.34), (28.67, 17.67), (25.31, 26.0), (25.34, 25.34)], [(17.81, 8.19), (18.28, 13.72), (11.0, 10.75), (29.44, 14.56), (21.13, 28.13), (29.0, 5.38), (18.65, 20.35), (28.67, 17.67), (25.31, 26.0), (25.34, 25.34)], [(17.8, 8.2), (18.28, 13.72), (11.0, 10.76), (29.44, 14.56), (21.14, 28.14), (29.0, 5.39), (18.65, 20.35), (28.66, 17.66), (25.32, 26.0), (25.35, 25.35)], [(17.8, 8.2), (18.29, 13.71), (11.0, 10.77), (29.45, 14.55), (21.14, 28.14), (29.0, 5.39), (18.64, 20.36), (28.66, 17.66), (25.33, 26.0), (25.35, 25.35)], [(17.79, 8.21), (18.29, 13.71), (11.0, 10.77), (29.45, 14.55), (21.15, 28.15), (29.0, 5.4), (18.64, 20.36), (28.65, 17.65), (25.33, 26.0), (25.36, 25.36)], [(17.79, 8.21), (18.3, 13.7), (11.0, 10.78), (29.46, 14.54), (21.15, 28.15), (29.0, 5.41), (18.63, 20.37), (28.65, 17.65), (25.34, 26.0), (25.36, 25.36)], [(17.78, 8.22), (18.3, 13.7), (11.0, 10.79), (29.46, 14.54), (21.16, 28.16), (29.0, 5.41), (18.63, 20.37), (28.64, 17.64), (25.35, 26.0), (25.37, 25.37)]]","[(28.69, 17.69), (28.69, 17.69), (28.68, 17.68), (28.68, 17.68), (28.67, 17.67), (28.67, 17.67), (28.67, 17.67), (28.66, 17.66), (28.66, 17.66), (28.65, 17.65), (28.65, 17.65), (28.64, 17.64)]",3.19,,,0.313
dynamic task,kh15_dt1,17,1,0,1,1,0.7399570546022005,10,"[[(25.73, 6.27), (21.0, 12.03), (21.0, 4.51), (8.41, 18.59), (4.08, 3.92), (30.92, 30.08), (30.83, 26.83), (6.25, 22.75), (20.0, 3.36), (27.0, 26.83)], [(25.73, 6.27), (21.0, 12.02), (21.0, 4.52), (8.41, 18.58), (4.08, 3.92), (30.92, 30.08), (30.82, 26.82), (6.25, 22.75), (20.0, 3.37), (27.0, 26.83)], [(25.72, 6.28), (21.0, 12.01), (21.0, 4.53), (8.42, 18.58), (4.07, 3.93), (30.92, 30.08), (30.82, 26.82), (6.26, 22.74), (20.0, 3.37), (27.0, 26.82)], [(25.72, 6.28), (21.0, 12.01), (21.0, 4.53), (8.42, 18.58), (4.07, 3.93), (30.93, 30.07), (30.81, 26.81), (6.26, 22.74), (20.0, 3.38), (27.0, 26.81)], [(25.71, 6.29), (21.0, 12.0), (21.0, 4.54), (8.43, 18.57), (4.06, 3.94), (30.93, 30.07), (30.81, 26.81), (6.27, 22.73), (20.0, 3.39), (27.0, 26.81)], [(25.71, 6.29), (21.0, 11.99), (21.0, 4.55), (8.43, 18.57), (4.06, 3.94), (30.94, 30.06), (30.8, 26.8), (6.27, 22.73), (20.0, 3.39), (27.0, 26.8)], [(25.7, 6.3), (21.0, 11.99), (21.0, 4.55), (8.44, 18.56), (4.05, 3.95), (30.94, 30.06), (30.8, 26.8), (6.28, 22.72), (20.0, 3.4), (27.0, 26.79)], [(25.7, 6.3), (21.0, 11.98), (21.0, 4.56), (8.44, 18.56), (4.05, 3.95), (30.95, 30.05), (30.79, 26.79), (6.28, 22.72), (20.0, 3.41), (27.0, 26.79)], [(25.69, 6.31), (21.0, 11.97), (21.0, 4.57), (8.45, 18.55), (4.04, 3.96), (30.95, 30.05), (30.79, 26.79), (6.29, 22.71), (20.0, 3.41), (27.0, 26.78)], [(25.69, 6.31), (21.0, 11.97), (21.0, 4.57), (8.45, 18.55), (4.04, 3.96), (30.96, 30.04), (30.78, 26.78), (6.29, 22.71), (20.0, 3.42), (27.0, 26.77)], [(25.68, 6.32), (21.0, 11.96), (21.0, 4.58), (8.46, 18.54), (4.03, 3.97), (30.96, 30.04), (30.78, 26.78), (6.3, 22.7), (20.0, 3.43), (27.0, 26.77)], [(25.68, 6.32), (21.0, 11.95), (21.0, 4.59), (8.46, 18.54), (4.03, 3.97), (30.97, 30.03), (30.77, 26.77), (6.3, 22.7), (20.0, 3.43), (27.0, 26.76)]]","[(21.0, 12.03), (21.0, 12.02), (21.0, 12.01), (21.0, 12.01), (21.0, 12.0), (21.0, 11.99), (21.0, 11.99), (21.0, 11.98), (21.0, 11.97), (21.0, 11.97), (21.0, 11.96), (21.0, 11.95)]",3.58,,,0.888
dynamic task,kh15_dt1,18,1,0,1,1,0.7348376264030776,10,"[[(4.18, 4.82), (18.76, 3.24), (8.04, 21.04), (31.15, 7.15), (13.7, 3.0), (11.93, 3.0), (16.62, 23.38), (26.23, 30.0), (21.58, 8.0), (12.23, 22.77)], [(4.18, 4.82), (18.75, 3.25), (8.05, 21.05), (31.14, 7.14), (13.71, 3.0), (11.93, 3.0), (16.61, 23.39), (26.22, 30.0), (21.59, 8.0), (12.23, 22.77)], [(4.17, 4.83), (18.75, 3.25), (8.05, 21.05), (31.14, 7.14), (13.71, 3.0), (11.94, 3.0), (16.61, 23.39), (26.21, 30.0), (21.59, 8.0), (12.24, 22.76)], [(4.17, 4.83), (18.75, 3.25), (8.06, 21.06), (31.13, 7.13), (13.72, 3.0), (11.95, 3.0), (16.6, 23.4), (26.21, 30.0), (21.6, 8.0), (12.24, 22.76)], [(4.17, 4.83), (18.74, 3.26), (8.06, 21.06), (31.13, 7.13), (13.73, 3.0), (11.95, 3.0), (16.6, 23.4), (26.2, 30.0), (21.61, 8.0), (12.25, 22.75)], [(4.16, 4.84), (18.74, 3.26), (8.07, 21.07), (31.12, 7.12), (13.73, 3.0), (11.96, 3.0), (16.59, 23.41), (26.19, 30.0), (21.61, 8.0), (12.25, 22.75)], [(4.16, 4.84), (18.73, 3.27), (8.07, 21.07), (31.12, 7.12), (13.74, 3.0), (11.97, 3.0), (16.59, 23.41), (26.19, 30.0), (21.62, 8.0), (12.25, 22.75)], [(4.15, 4.85), (18.73, 3.27), (8.08, 21.08), (31.11, 7.11), (13.75, 3.0), (11.97, 3.0), (16.58, 23.42), (26.18, 30.0), (21.63, 8.0), (12.26, 22.74)], [(4.15, 4.85), (18.72, 3.28), (8.08, 21.08), (31.11, 7.11), (13.75, 3.0), (11.98, 3.0), (16.58, 23.42), (26.17, 30.0), (21.63, 8.0), (12.26, 22.74)], [(4.14, 4.86), (18.72, 3.28), (8.08, 21.08), (31.1, 7.1), (13.76, 3.0), (11.99, 3.0), (16.58, 23.42), (26.17, 30.0), (21.64, 8.0), (12.27, 22.73)], [(4.14, 4.86), (18.71, 3.29), (8.09, 21.09), (31.1, 7.1), (13.77, 3.0), (11.99, 3.0), (16.57, 23.43), (26.16, 30.0), (21.65, 8.0), (12.27, 22.73)], [(4.13, 4.87), (18.71, 3.29), (8.09, 21.09), (31.09, 7.09), (13.77, 3.0), (12.0, 3.0), (16.57, 23.43), (26.15, 30.0), (21.65, 8.0), (12.28, 22.72)]]","[(16.62, 23.38), (16.61, 23.39), (16.61, 23.39), (16.6, 23.4), (16.6, 23.4), (16.59, 23.41), (16.59, 23.41), (16.58, 23.42), (16.58, 23.42), (16.58, 23.42), (16.57, 23.43), (16.57, 23.43)]",3.18,,,1.422
dynamic task,kh15_dt1,19,0,0,0,1,0.8446644083687715,10,"[[(15.83, 26.83), (2.59, 26.59), (29.44, 3.44), (16.9, 13.0), (10.64, 19.36), (7.0, 21.08), (9.19, 9.0), (5.61, 3.0), (21.81, 18.0), (2.34, 3.34)], [(15.83, 26.83), (2.59, 26.59), (29.44, 3.44), (16.89, 13.0), (10.63, 19.37), (7.0, 21.09), (9.2, 9.0), (5.6, 3.0), (21.82, 18.0), (2.35, 3.35)], [(15.84, 26.84), (2.6, 26.6), (29.45, 3.45), (16.89, 13.0), (10.63, 19.37), (7.0, 21.09), (9.21, 9.0), (5.59, 3.0), (21.83, 18.0), (2.35, 3.35)], [(15.84, 26.84), (2.6, 26.6), (29.45, 3.45), (16.88, 13.0), (10.62, 19.38), (7.0, 21.1), (9.21, 9.0), (5.59, 3.0), (21.83, 18.0), (2.36, 3.36)], [(15.85, 26.85), (2.61, 26.61), (29.46, 3.46), (16.87, 13.0), (10.62, 19.38), (7.0, 21.11), (9.22, 9.0), (5.58, 3.0), (21.84, 18.0), (2.36, 3.36)], [(15.85, 26.85), (2.61, 26.61), (29.46, 3.46), (16.87, 13.0), (10.61, 19.39), (7.0, 21.11), (9.23, 9.0), (5.57, 3.0), (21.85, 18.0), (2.37, 3.37)], [(15.86, 26.86), (2.62, 26.62), (29.47, 3.47), (16.86, 13.0), (10.61, 19.39), (7.0, 21.12), (9.23, 9.0), (5.57, 3.0), (21.85, 18.0), (2.37, 3.37)], [(15.86, 26.86), (2.62, 26.62), (29.47, 3.47), (16.85, 13.0), (10.6, 19.4), (7.0, 21.13), (9.24, 9.0), (5.56, 3.0), (21.86, 18.0), (2.38, 3.38)], [(15.87, 26.87), (2.63, 26.63), (29.48, 3.48), (16.85, 13.0), (10.6, 19.4), (7.0, 21.13), (9.25, 9.0), (5.55, 3.0), (21.87, 18.0), (2.38, 3.38)], [(15.87, 26.87), (2.63, 26.63), (29.48, 3.48), (16.84, 13.0), (10.59, 19.41), (7.0, 21.14), (9.25, 9.0), (5.55, 3.0), (21.87, 18.0), (2.39, 3.39)], [(15.88, 26.88), (2.64, 26.64), (29.49, 3.49), (16.83, 13.0), (10.59, 19.41), (7.0, 21.15), (9.26, 9.0), (5.54, 3.0), (21.88, 18.0), (2.39, 3.39)], [(15.88, 26.88), (2.64, 26.64), (29.49, 3.49), (16.83, 13.0), (10.58, 19.42), (7.0, 21.15), (9.27, 9.0), (5.53, 3.0), (21.89, 18.0), (2.4, 3.4)], [(15.89, 26.89), (2.65, 26.65), (29.5, 3.5), (16.82, 13.0), (10.58, 19.42), (7.0, 21.16), (9.27, 9.0), (5.53, 3.0), (21.89, 18.0), (2.4, 3.4)], [(15.89, 26.89), (2.65, 26.65), (29.5, 3.5), (16.81, 13.0), (10.58, 19.42), (7.0, 21.17), (9.28, 9.0), (5.52, 3.0), (21.9, 18.0), (2.41, 3.41)]]",,0.0,,,1.07
dynamic task,kh15_dt1,20,0,0,0,1,0.9375061688851929,10,"[[(31.0, 29.72), (15.33, 14.67), (17.0, 5.91), (25.7, 2.0), (7.0, 21.0), (20.18, 8.18), (31.58, 2.42), (10.0, 30.25), (24.0, 26.91), (30.75, 10.75)], [(31.0, 29.73), (15.33, 14.67), (17.0, 5.9), (25.71, 2.0), (6.99, 20.99), (20.18, 8.18), (31.58, 2.42), (10.0, 30.25), (24.0, 26.92), (30.75, 10.75)], [(31.0, 29.73), (15.34, 14.66), (17.0, 5.89), (25.71, 2.0), (6.99, 20.99), (20.19, 8.19), (31.57, 2.43), (10.0, 30.24), (24.0, 26.93), (30.76, 10.76)], [(31.0, 29.74), (15.34, 14.66), (17.0, 5.89), (25.72, 2.0), (6.98, 20.98), (20.19, 8.19), (31.57, 2.43), (10.0, 30.23), (24.0, 26.93), (30.76, 10.76)], [(31.0, 29.75), (15.35, 14.65), (17.0, 5.88), (25.73, 2.0), (6.98, 20.98), (20.2, 8.2), (31.56, 2.44), (10.0, 30.23), (24.0, 26.94), (30.77, 10.77)], [(31.0, 29.75), (15.35, 14.65), (17.0, 5.87), (25.73, 2.0), (6.97, 20.97), (20.2, 8.2), (31.56, 2.44), (10.0, 30.22), (24.0, 26.95), (30.77, 10.77)], [(31.0, 29.76), (15.36, 14.64), (17.0, 5.87), (25.74, 2.0), (6.97, 20.97), (20.21, 8.21), (31.55, 2.45), (10.0, 30.21), (24.0, 26.95), (30.78, 10.78)], [(31.0, 29.77), (15.36, 14.64), (17.0, 5.86), (25.75, 2.0), (6.96, 20.96), (20.21, 8.21), (31.55, 2.45), (10.0, 30.21), (24.0, 26.96), (30.78, 10.78)], [(31.0, 29.77), (15.37, 14.63), (17.0, 5.85), (25.75, 2.0), (6.96, 20.96), (20.22, 8.22), (31.54, 2.46), (10.0, 30.2), (24.0, 26.97), (30.79, 10.79)], [(31.0, 29.78), (15.37, 14.63), (17.0, 5.85), (25.76, 2.0), (6.95, 20.95), (20.22, 8.22), (31.54, 2.46), (10.0, 30.19), (24.0, 26.97), (30.79, 10.79)], [(31.0, 29.79), (15.38, 14.62), (17.0, 5.84), (25.77, 2.0), (6.95, 20.95), (20.23, 8.23), (31.53, 2.47), (10.0, 30.19), (24.0, 26.98), (30.8, 10.8)], [(31.0, 29.79), (15.38, 14.62), (17.0, 5.83), (25.77, 2.0), (6.94, 20.94), (20.23, 8.23), (31.53, 2.47), (10.0, 30.18), (24.0, 26.99), (30.8, 10.8)], [(31.0, 29.8), (15.39, 14.61), (17.0, 5.83), (25.78, 2.0), (6.94, 20.94), (20.24, 8.24), (31.52, 2.48), (10.0, 30.17), (24.0, 26.99), (30.81, 10.81)], [(31.0, 29.81), (15.39, 14.61), (17.0, 5.82), (25.79, 2.0), (6.93, 20.93), (20.24, 8.24), (31.52, 2.48), (10.0, 30.17), (24.0, 27.0), (30.81, 10.81)], [(31.0, 29.81), (15.4, 14.6), (17.0, 5.81), (25.79, 2.0), (6.93, 20.93), (20.25, 8.25), (31.51, 2.49), (10.0, 30.16), (24.0, 27.01), (30.82, 10.82)], [(31.0, 29.82), (15.4, 14.6), (17.0, 5.81), (25.8, 2.0), (6.92, 20.92), (20.25, 8.25), (31.51, 2.49), (10.0, 30.15), (24.0, 27.01), (30.82, 10.82)]]",,0.0,,,0.62
dynamic task,kh15_dt1,21,1,0,1,1,1.5123103218857068,10,"[[(5.0, 23.9), (30.48, 9.0), (4.0, 29.49), (4.69, 22.0), (6.69, 28.0), (26.0, 15.16), (13.88, 7.88), (5.0, 13.89), (19.37, 27.63), (14.0, 31.13)], [(5.0, 23.89), (30.47, 9.0), (4.0, 29.49), (4.69, 22.0), (6.7, 28.0), (26.0, 15.17), (13.87, 7.87), (5.0, 13.89), (19.36, 27.64), (14.0, 31.12)], [(5.0, 23.89), (30.47, 9.0), (4.0, 29.5), (4.7, 22.0), (6.71, 28.0), (26.0, 15.17), (13.87, 7.87), (5.0, 13.9), (19.36, 27.64), (14.0, 31.11)], [(5.0, 23.88), (30.46, 9.0), (4.0, 29.51), (4.71, 22.0), (6.71, 28.0), (26.0, 15.18), (13.86, 7.86), (5.0, 13.91), (19.35, 27.65), (14.0, 31.11)], [(5.0, 23.87), (30.45, 9.0), (4.0, 29.51), (4.71, 22.0), (6.72, 28.0), (26.0, 15.19), (13.86, 7.86), (5.0, 13.91), (19.35, 27.65), (14.0, 31.1)], [(5.0, 23.87), (30.45, 9.0), (4.0, 29.52), (4.72, 22.0), (6.73, 28.0), (26.0, 15.19), (13.85, 7.85), (5.0, 13.92), (19.34, 27.66), (14.0, 31.09)], [(5.0, 23.86), (30.44, 9.0), (4.0, 29.53), (4.73, 22.0), (6.73, 28.0), (26.0, 15.2), (13.85, 7.85), (5.0, 13.93), (19.34, 27.66), (14.0, 31.09)], [(5.0, 23.85), (30.43, 9.0), (4.0, 29.53), (4.73, 22.0), (6.74, 28.0), (26.0, 15.21), (13.84, 7.84), (5.0, 13.93), (19.33, 27.67), (14.0, 31.08)], [(5.0, 23.85), (30.43, 9.0), (4.0, 29.54), (4.74, 22.0), (6.75, 28.0), (26.0, 15.21), (13.84, 7.84), (5.0, 13.94), (19.33, 27.67), (14.0, 31.07)], [(5.0, 23.84), (30.42, 9.0), (4.0, 29.55), (4.75, 22.0), (6.75, 28.0), (26.0, 15.22), (13.83, 7.83), (5.0, 13.95), (19.33, 27.67), (14.0, 31.07)], [(5.0, 23.83), (30.41, 9.0), (4.0, 29.55), (4.75, 22.0), (6.76, 28.0), (26.0, 15.23), (13.83, 7.83), (5.0, 13.95), (19.32, 27.68), (14.0, 31.06)], [(5.0, 23.83), (30.41, 9.0), (4.0, 29.56), (4.76, 22.0), (6.77, 28.0), (26.0, 15.23), (13.83, 7.83), (5.0, 13.96), (19.32, 27.68), (14.0, 31.05)], [(5.0, 23.82), (30.4, 9.0), (4.0, 29.57), (4.77, 22.0), (6.77, 28.0), (26.0, 15.24), (13.82, 7.82), (5.0, 13.97), (19.31, 27.69), (14.0, 31.05)], [(5.0, 23.81), (30.39, 9.0), (4.0, 29.57), (4.77, 22.0), (6.78, 28.0), (26.0, 15.25), (13.82, 7.82), (5.0, 13.97), (19.31, 27.69), (14.0, 31.04)], [(5.0, 23.81), (30.39, 9.0), (4.0, 29.58), (4.78, 22.0), (6.79, 28.0), (26.0, 15.25), (13.81, 7.81), (5.0, 13.98), (19.3, 27.7), (14.0, 31.03)], [(5.0, 23.8), (30.38, 9.0), (4.0, 29.59), (4.79, 22.0), (6.79, 28.0), (26.0, 15.26), (13.81, 7.81), (5.0, 13.99), (19.3, 27.7), (14.0, 31.03)], [(5.0, 23.79), (30.37, 9.0), (4.0, 29.59), (4.79, 22.0), (6.8, 28.0), (26.0, 15.27), (13.8, 7.8), (5.0, 13.99), (19.29, 27.71), (14.0, 31.02)], [(5.0, 23.79), (30.37, 9.0), (4.0, 29.6), (4.8, 22.0), (6.81, 28.0), (26.0, 15.27), (13.8, 7.8), (5.0, 14.0), (19.29, 27.71), (14.0, 31.01)], [(5.0, 23.78), (30.36, 9.0), (4.0, 29.61), (4.81, 22.0), (6.81, 28.0), (26.0, 15.28), (13.79, 7.79), (5.0, 14.01), (19.28, 27.72), (14.0, 31.01)], [(5.0, 23.77), (30.35, 9.0), (4.0, 29.61), (4.81, 22.0), (6.82, 28.0), (26.0, 15.29), (13.79, 7.79), (5.0, 14.01), (19.28, 27.72), (14.0, 31.0)], [(5.0, 23.77), (30.35, 9.0), (4.0, 29.62), (4.82, 22.0), (6.83, 28.0), (26.0, 15.29), (13.78, 7.78), (5.0, 14.02), (19.27, 27.73), (14.0, 30.99)], [(5.0, 23.76), (30.34, 9.0), (4.0, 29.63), (4.83, 22.0), (6.83, 28.0), (26.0, 15.3), (13.78, 7.78), (5.0, 14.03), (19.27, 27.73), (14.0, 30.99)], [(5.0, 23.75), (30.33, 9.0), (4.0, 29.63), (4.83, 22.0), (6.84, 28.0), (26.0, 15.31), (13.77, 7.77), (5.0, 14.03), (19.26, 27.74), (14.0, 30.98)], [(5.0, 23.75), (30.33, 9.0), (4.0, 29.64), (4.84, 22.0), (6.85, 28.0), (26.0, 15.31), (13.77, 7.77), (5.0, 14.04), (19.26, 27.74), (14.0, 30.97)], [(5.0, 23.74), (30.32, 9.0), (4.0, 29.65), (4.85, 22.0), (6.85, 28.0), (26.0, 15.32), (13.76, 7.76), (5.0, 14.05), (19.25, 27.75), (14.0, 30.97)], [(5.0, 23.73), (30.31, 9.0), (4.0, 29.65), (4.85, 22.0), (6.86, 28.0), (26.0, 15.33), (13.76, 7.76), (5.0, 14.05), (19.25, 27.75), (14.0, 30.96)], [(5.0, 23.73), (30.31, 9.0), (4.0, 29.66), (4.86, 22.0), (6.87, 28.0), (26.0, 15.33), (13.75, 7.75), (5.0, 14.06), (19.25, 27.75), (14.0, 30.95)], [(5.0, 23.72), (30.3, 9.0), (4.0, 29.67), (4.87, 22.0), (6.87, 28.0), (26.0, 15.34), (13.75, 7.75), (5.0, 14.07), (19.24, 27.76), (14.0, 30.95)]]","[(26.0, 15.16), (26.0, 15.17), (26.0, 15.17), (26.0, 15.18), (26.0, 15.19), (26.0, 15.19), (26.0, 15.2), (26.0, 15.21), (26.0, 15.21), (26.0, 15.22), (26.0, 15.23), (26.0, 15.23), (26.0, 15.24), (26.0, 15.25), (26.0, 15.25), (26.0, 15.26), (26.0, 15.27), (26.0, 15.27), (26.0, 15.28), (26.0, 15.29), (26.0, 15.29), (26.0, 15.3), (26.0, 15.31), (26.0, 15.31), (26.0, 15.32), (26.0, 15.33), (26.0, 15.33), (26.0, 15.34)]",4.05,,,1.882
dynamic task,kh15_dt1,22,1,0,1,1,0.926627881740842,10,"[[(29.77, 12.23), (24.67, 23.33), (4.11, 21.0), (6.11, 6.0), (10.75, 19.75), (8.23, 19.23), (21.55, 15.0), (17.32, 13.32), (24.21, 7.0), (27.17, 15.83)], [(29.77, 12.23), (24.67, 23.33), (4.12, 21.0), (6.12, 6.0), (10.74, 19.74), (8.23, 19.23), (21.55, 15.0), (17.33, 13.33), (24.22, 7.0), (27.18, 15.82)], [(29.76, 12.24), (24.67, 23.33), (4.13, 21.0), (6.13, 6.0), (10.74, 19.74), (8.24, 19.24), (21.56, 15.0), (17.33, 13.33), (24.23, 7.0), (27.18, 15.82)], [(29.76, 12.24), (24.66, 23.34), (4.13, 21.0), (6.13, 6.0), (10.73, 19.73), (8.24, 19.24), (21.57, 15.0), (17.33, 13.33), (24.23, 7.0), (27.19, 15.81)], [(29.75, 12.25), (24.66, 23.34), (4.14, 21.0), (6.14, 6.0), (10.73, 19.73), (8.25, 19.25), (21.57, 15.0), (17.34, 13.34), (24.24, 7.0), (27.19, 15.81)], [(29.75, 12.25), (24.65, 23.35), (4.15, 21.0), (6.15, 6.0), (10.72, 19.72), (8.25, 19.25), (21.58, 15.0), (17.34, 13.34), (24.25, 7.0), (27.2, 15.8)], [(29.75, 12.25), (24.65, 23.35), (4.15, 21.0), (6.15, 6.0), (10.72, 19.72), (8.25, 19.25), (21.59, 15.0), (17.35, 13.35), (24.25, 7.0), (27.2, 15.8)], [(29.74, 12.26), (24.64, 23.36), (4.16, 21.0), (6.16, 6.0), (10.71, 19.71), (8.26, 19.26), (21.59, 15.0), (17.35, 13.35), (24.26, 7.0), (27.21, 15.79)], [(29.74, 12.26), (24.64, 23.36), (4.17, 21.0), (6.17, 6.0), (10.71, 19.71), (8.26, 19.26), (21.6, 15.0), (17.36, 13.36), (24.27, 7.0), (27.21, 15.79)], [(29.73, 12.27), (24.63, 23.37), (4.17, 21.0), (6.17, 6.0), (10.7, 19.7), (8.27, 19.27), (21.61, 15.0), (17.36, 13.36), (24.27, 7.0), (27.22, 15.78)], [(29.73, 12.27), (24.63, 23.37), (4.18, 21.0), (6.18, 6.0), (10.7, 19.7), (8.27, 19.27), (21.61, 15.0), (17.37, 13.37), (24.28, 7.0), (27.22, 15.78)], [(29.72, 12.28), (24.62, 23.38), (4.19, 21.0), (6.19, 6.0), (10.69, 19.69), (8.28, 19.28), (21.62, 15.0), (17.37, 13.37), (24.29, 7.0), (27.23, 15.77)], [(29.72, 12.28), (24.62, 23.38), (4.19, 21.0), (6.19, 6.0), (10.69, 19.69), (8.28, 19.28), (21.63, 15.0), (17.38, 13.38), (24.29, 7.0), (27.23, 15.77)], [(29.71, 12.29), (24.61, 23.39), (4.2, 21.0), (6.2, 6.0), (10.68, 19.68), (8.29, 19.29), (21.63, 15.0), (17.38, 13.38), (24.3, 7.0), (27.24, 15.76)], [(29.71, 12.29), (24.61, 23.39), (4.21, 21.0), (6.21, 6.0), (10.68, 19.68), (8.29, 19.29), (21.64, 15.0), (17.39, 13.39), (24.31, 7.0), (27.24, 15.76)], [(29.7, 12.3), (24.6, 23.4), (4.21, 21.0), (6.21, 6.0), (10.67, 19.67), (8.3, 19.3), (21.65, 15.0), (17.39, 13.39), (24.31, 7.0), (27.25, 15.75)]]","[(17.32, 13.32), (17.33, 13.33), (17.33, 13.33), (17.33, 13.33), (17.34, 13.34), (17.34, 13.34), (17.35, 13.35), (17.35, 13.35), (17.36, 13.36), (17.36, 13.36), (17.37, 13.37), (17.37, 13.37), (17.38, 13.38), (17.38, 13.38), (17.39, 13.39), (17.39, 13.39)]",3.57,,,0.65
dynamic task,kh15_dt1,23,1,0,0,0,1.020710672662517,10,"[[(9.66, 11.0), (12.9, 7.0), (11.0, 31.31), (29.5, 12.5), (20.88, 10.12), (8.0, 13.76), (17.0, 27.75), (25.22, 2.0), (2.0, 20.23), (18.79, 10.0)], [(9.65, 11.0), (12.89, 7.0), (11.0, 31.3), (29.51, 12.49), (20.88, 10.12), (8.0, 13.77), (17.0, 27.76), (25.23, 2.0), (2.0, 20.23), (18.79, 10.0)], [(9.65, 11.0), (12.89, 7.0), (11.0, 31.29), (29.51, 12.49), (20.87, 10.13), (8.0, 13.77), (17.0, 27.77), (25.23, 2.0), (2.0, 20.24), (18.8, 10.0)], [(9.64, 11.0), (12.88, 7.0), (11.0, 31.29), (29.52, 12.48), (20.87, 10.13), (8.0, 13.78), (17.0, 27.77), (25.24, 2.0), (2.0, 20.25), (18.81, 10.0)], [(9.63, 11.0), (12.87, 7.0), (11.0, 31.28), (29.52, 12.48), (20.86, 10.14), (8.0, 13.79), (17.0, 27.78), (25.25, 2.0), (2.0, 20.25), (18.81, 10.0)], [(9.63, 11.0), (12.87, 7.0), (11.0, 31.27), (29.53, 12.47), (20.86, 10.14), (8.0, 13.79), (17.0, 27.79), (25.25, 2.0), (2.0, 20.26), (18.82, 10.0)], [(9.62, 11.0), (12.86, 7.0), (11.0, 31.27), (29.53, 12.47), (20.85, 10.15), (8.0, 13.8), (17.0, 27.79), (25.26, 2.0), (2.0, 20.27), (18.83, 10.0)], [(9.61, 11.0), (12.85, 7.0), (11.0, 31.26), (29.54, 12.46), (20.85, 10.15), (8.0, 13.81), (17.0, 27.8), (25.27, 2.0), (2.0, 20.27), (18.83, 10.0)], [(9.61, 11.0), (12.85, 7.0), (11.0, 31.25), (29.54, 12.46), (20.84, 10.16), (8.0, 13.81), (17.0, 27.81), (25.27, 2.0), (2.0, 20.28), (18.84, 10.0)], [(9.6, 11.0), (12.84, 7.0), (11.0, 31.25), (29.55, 12.45), (20.84, 10.16), (8.0, 13.82), (17.0, 27.81), (25.28, 2.0), (2.0, 20.29), (18.85, 10.0)], [(9.59, 11.0), (12.83, 7.0), (11.0, 31.24), (29.55, 12.45), (20.83, 10.17), (8.0, 13.83), (17.0, 27.82), (25.29, 2.0), (2.0, 20.29), (18.85, 10.0)], [(9.59, 11.0), (12.83, 7.0), (11.0, 31.23), (29.56, 12.44), (20.83, 10.17), (8.0, 13.83), (17.0, 27.83), (25.29, 2.0), (2.0, 20.3), (18.86, 10.0)], [(9.58, 11.0), (12.82, 7.0), (11.0, 31.23), (29.56, 12.44), (20.83, 10.17), (8.0, 13.84), (17.0, 27.83), (25.3, 2.0), (2.0, 20.31), (18.87, 10.0)], [(9.57, 11.0), (12.81, 7.0), (11.0, 31.22), (29.57, 12.43), (20.82, 10.18), (8.0, 13.85), (17.0, 27.84), (25.31, 2.0), (2.0, 20.31), (18.87, 10.0)], [(9.57, 11.0), (12.81, 7.0), (11.0, 31.21), (29.57, 12.43), (20.82, 10.18), (8.0, 13.85), (17.0, 27.85), (25.31, 2.0), (2.0, 20.32), (18.88, 10.0)], [(9.56, 11.0), (12.8, 7.0), (11.0, 31.21), (29.58, 12.42), (20.81, 10.19), (8.0, 13.86), (17.0, 27.85), (25.32, 2.0), (2.0, 20.33), (18.89, 10.0)], [(9.55, 11.0), (12.79, 7.0), (11.0, 31.2), (29.58, 12.42), (20.81, 10.19), (8.0, 13.87), (17.0, 27.86), (25.33, 2.0), (2.0, 20.33), (18.89, 10.0)], [(9.55, 11.0), (12.79, 7.0), (11.0, 31.19), (29.58, 12.42), (20.8, 10.2), (8.0, 13.87), (17.0, 27.87), (25.33, 2.0), (2.0, 20.34), (18.9, 10.0)]]","[(11.0, 31.31), (11.0, 31.3), (11.0, 31.29), (11.0, 31.29), (11.0, 31.28), (11.0, 31.27), (11.0, 31.27), (11.0, 31.26), (11.0, 31.25), (11.0, 31.25), (11.0, 31.24), (11.0, 31.23), (11.0, 31.23), (11.0, 31.22), (11.0, 31.21), (11.0, 31.21), (11.0, 31.2), (11.0, 31.19)]",3.95,,,0.53
dynamic task,kh15_dt1,24,0,0,0,1,1.4163393898161303,10,"[[(30.51, 8.51), (16.91, 11.91), (5.0, 11.33), (19.38, 12.62), (19.03, 20.97), (9.82, 3.18), (5.42, 10.0), (6.77, 4.77), (9.42, 30.42), (29.88, 10.12)], [(30.5, 8.5), (16.9, 11.9), (5.0, 11.33), (19.38, 12.62), (19.03, 20.97), (9.82, 3.18), (5.43, 10.0), (6.77, 4.77), (9.42, 30.42), (29.88, 10.12)], [(30.5, 8.5), (16.9, 11.9), (5.0, 11.34), (19.37, 12.63), (19.04, 20.96), (9.81, 3.19), (5.43, 10.0), (6.76, 4.76), (9.43, 30.43), (29.87, 10.13)], [(30.5, 8.5), (16.89, 11.89), (5.0, 11.35), (19.37, 12.63), (19.04, 20.96), (9.81, 3.19), (5.44, 10.0), (6.76, 4.76), (9.43, 30.43), (29.87, 10.13)], [(30.49, 8.49), (16.89, 11.89), (5.0, 11.35), (19.36, 12.64), (19.05, 20.95), (9.8, 3.2), (5.45, 10.0), (6.75, 4.75), (9.44, 30.44), (29.86, 10.14)], [(30.49, 8.49), (16.88, 11.88), (5.0, 11.36), (19.36, 12.64), (19.05, 20.95), (9.8, 3.2), (5.45, 10.0), (6.75, 4.75), (9.44, 30.44), (29.86, 10.14)], [(30.48, 8.48), (16.88, 11.88), (5.0, 11.37), (19.35, 12.65), (19.06, 20.94), (9.79, 3.21), (5.46, 10.0), (6.75, 4.75), (9.45, 30.45), (29.85, 10.15)], [(30.48, 8.48), (16.87, 11.87), (5.0, 11.37), (19.35, 12.65), (19.06, 20.94), (9.79, 3.21), (5.47, 10.0), (6.74, 4.74), (9.45, 30.45), (29.85, 10.15)], [(30.47, 8.47), (16.87, 11.87), (5.0, 11.38), (19.34, 12.66), (19.07, 20.93), (9.78, 3.22), (5.47, 10.0), (6.74, 4.74), (9.46, 30.46), (29.84, 10.16)], [(30.47, 8.47), (16.86, 11.86), (5.0, 11.39), (19.34, 12.66), (19.07, 20.93), (9.78, 3.22), (5.48, 10.0), (6.73, 4.73), (9.46, 30.46), (29.84, 10.16)], [(30.46, 8.46), (16.86, 11.86), (5.0, 11.39), (19.33, 12.67), (19.08, 20.92), (9.77, 3.23), (5.49, 10.0), (6.73, 4.73), (9.47, 30.47), (29.83, 10.17)], [(30.46, 8.46), (16.85, 11.85), (5.0, 11.4), (19.33, 12.67), (19.08, 20.92), (9.77, 3.23), (5.49, 10.0), (6.72, 4.72), (9.47, 30.47), (29.83, 10.17)], [(30.45, 8.45), (16.85, 11.85), (5.0, 11.41), (19.33, 12.67), (19.08, 20.92), (9.76, 3.24), (5.5, 10.0), (6.72, 4.72), (9.48, 30.48), (29.83, 10.17)], [(30.45, 8.45), (16.84, 11.84), (5.0, 11.41), (19.32, 12.68), (19.09, 20.91), (9.76, 3.24), (5.51, 10.0), (6.71, 4.71), (9.48, 30.48), (29.82, 10.18)], [(30.44, 8.44), (16.84, 11.84), (5.0, 11.42), (19.32, 12.68), (19.09, 20.91), (9.75, 3.25), (5.51, 10.0), (6.71, 4.71), (9.49, 30.49), (29.82, 10.18)], [(30.44, 8.44), (16.83, 11.83), (5.0, 11.43), (19.31, 12.69), (19.1, 20.9), (9.75, 3.25), (5.52, 10.0), (6.7, 4.7), (9.49, 30.49), (29.81, 10.19)], [(30.43, 8.43), (16.83, 11.83), (5.0, 11.43), (19.31, 12.69), (19.1, 20.9), (9.75, 3.25), (5.53, 10.0), (6.7, 4.7), (9.5, 30.5), (29.81, 10.19)], [(30.43, 8.43), (16.83, 11.83), (5.0, 11.44), (19.3, 12.7), (19.11, 20.89), (9.74, 3.26), (5.53, 10.0), (6.69, 4.69), (9.5, 30.5), (29.8, 10.2)], [(30.42, 8.42), (16.82, 11.82), (5.0, 11.45), (19.3, 12.7), (19.11, 20.89), (9.74, 3.26), (5.54, 10.0), (6.69, 4.69), (9.5, 30.5), (29.8, 10.2)], [(30.42, 8.42), (16.82, 11.82), (5.0, 11.45), (19.29, 12.71), (19.12, 20.88), (9.73, 3.27), (5.55, 10.0), (6.68, 4.68), (9.51, 30.51), (29.79, 10.21)], [(30.42, 8.42), (16.81, 11.81), (5.0, 11.46), (19.29, 12.71), (19.12, 20.88), (9.73, 3.27), (5.55, 10.0), (6.68, 4.68), (9.51, 30.51), (29.79, 10.21)], [(30.41, 8.41), (16.81, 11.81), (5.0, 11.47), (19.28, 12.72), (19.13, 20.87), (9.72, 3.28), (5.56, 10.0), (6.67, 4.67), (9.52, 30.52), (29.78, 10.22)], [(30.41, 8.41), (16.8, 11.8), (5.0, 11.47), (19.28, 12.72), (19.13, 20.87), (9.72, 3.28), (5.57, 10.0), (6.67, 4.67), (9.52, 30.52), (29.78, 10.22)], [(30.4, 8.4), (16.8, 11.8), (5.0, 11.48), (19.27, 12.73), (19.14, 20.86), (9.71, 3.29), (5.57, 10.0), (6.67, 4.67), (9.53, 30.53), (29.77, 10.23)], [(30.4, 8.4), (16.79, 11.79), (5.0, 11.49), (19.27, 12.73), (19.14, 20.86), (9.71, 3.29), (5.58, 10.0), (6.66, 4.66), (9.53, 30.53), (29.77, 10.23)], [(30.39, 8.39), (16.79, 11.79), (5.0, 11.49), (19.26, 12.74), (19.15, 20.85), (9.7, 3.3), (5.59, 10.0), (6.66, 4.66), (9.54, 30.54), (29.76, 10.24)]]",,0.0,,,1.097
dynamic task,kh15_dt1,25,0,0,0,1,0.9323685362523975,10,"[[(13.83, 27.17), (16.67, 13.0), (27.91, 31.0), (25.01, 16.99), (17.0, 26.38), (3.27, 16.0), (24.47, 3.47), (21.0, 4.76), (16.0, 29.21), (18.0, 14.45)], [(13.84, 27.16), (16.67, 13.0), (27.9, 31.0), (25.0, 17.0), (17.0, 26.37), (3.27, 16.0), (24.47, 3.47), (21.0, 4.75), (16.0, 29.22), (18.0, 14.44)], [(13.84, 27.16), (16.66, 13.0), (27.89, 31.0), (25.0, 17.0), (17.0, 26.37), (3.28, 16.0), (24.48, 3.48), (21.0, 4.75), (16.0, 29.23), (18.0, 14.43)], [(13.85, 27.15), (16.65, 13.0), (27.89, 31.0), (25.0, 17.0), (17.0, 26.36), (3.29, 16.0), (24.48, 3.48), (21.0, 4.74), (16.0, 29.23), (18.0, 14.43)], [(13.85, 27.15), (16.65, 13.0), (27.88, 31.0), (24.99, 17.01), (17.0, 26.35), (3.29, 16.0), (24.49, 3.49), (21.0, 4.73), (16.0, 29.24), (18.0, 14.42)], [(13.86, 27.14), (16.64, 13.0), (27.87, 31.0), (24.99, 17.01), (17.0, 26.35), (3.3, 16.0), (24.49, 3.49), (21.0, 4.73), (16.0, 29.25), (18.0, 14.41)], [(13.86, 27.14), (16.63, 13.0), (27.87, 31.0), (24.98, 17.02), (17.0, 26.34), (3.31, 16.0), (24.5, 3.5), (21.0, 4.72), (16.0, 29.25), (18.0, 14.41)], [(13.87, 27.13), (16.63, 13.0), (27.86, 31.0), (24.98, 17.02), (17.0, 26.33), (3.31, 16.0), (24.5, 3.5), (21.0, 4.71), (16.0, 29.26), (18.0, 14.4)], [(13.87, 27.13), (16.62, 13.0), (27.85, 31.0), (24.97, 17.03), (17.0, 26.33), (3.32, 16.0), (24.5, 3.5), (21.0, 4.71), (16.0, 29.27), (18.0, 14.39)], [(13.88, 27.12), (16.61, 13.0), (27.85, 31.0), (24.97, 17.03), (17.0, 26.32), (3.33, 16.0), (24.51, 3.51), (21.0, 4.7), (16.0, 29.27), (18.0, 14.39)], [(13.88, 27.12), (16.61, 13.0), (27.84, 31.0), (24.96, 17.04), (17.0, 26.31), (3.33, 16.0), (24.51, 3.51), (21.0, 4.69), (16.0, 29.28), (18.0, 14.38)], [(13.89, 27.11), (16.6, 13.0), (27.83, 31.0), (24.96, 17.04), (17.0, 26.31), (3.34, 16.0), (24.52, 3.52), (21.0, 4.69), (16.0, 29.29), (18.0, 14.37)], [(13.89, 27.11), (16.59, 13.0), (27.83, 31.0), (24.95, 17.05), (17.0, 26.3), (3.35, 16.0), (24.52, 3.52), (21.0, 4.68), (16.0, 29.29), (18.0, 14.37)], [(13.9, 27.1), (16.59, 13.0), (27.82, 31.0), (24.95, 17.05), (17.0, 26.29), (3.35, 16.0), (24.53, 3.53), (21.0, 4.67), (16.0, 29.3), (18.0, 14.36)], [(13.9, 27.1), (16.58, 13.0), (27.81, 31.0), (24.94, 17.06), (17.0, 26.29), (3.36, 16.0), (24.53, 3.53), (21.0, 4.67), (16.0, 29.31), (18.0, 14.35)], [(13.91, 27.09), (16.57, 13.0), (27.81, 31.0), (24.94, 17.06), (17.0, 26.28), (3.37, 16.0), (24.54, 3.54), (21.0, 4.66), (16.0, 29.31), (18.0, 14.35)]]",,0.0,,,1.596
dynamic task,kh15_dt1,26,1,0,1,1,1.3255026770475524,10,"[[(28.17, 19.17), (27.05, 13.05), (30.95, 12.95), (21.0, 18.61), (2.43, 2.43), (15.84, 12.0), (12.81, 24.19), (9.39, 8.0), (7.43, 3.43), (22.63, 12.37)], [(28.17, 19.17), (27.06, 13.06), (30.94, 12.94), (21.0, 18.61), (2.44, 2.44), (15.83, 12.0), (12.81, 24.19), (9.39, 8.0), (7.43, 3.43), (22.62, 12.38)], [(28.18, 19.18), (27.06, 13.06), (30.94, 12.94), (21.0, 18.6), (2.44, 2.44), (15.83, 12.0), (12.82, 24.18), (9.4, 8.0), (7.44, 3.44), (22.62, 12.38)], [(28.18, 19.18), (27.07, 13.07), (30.93, 12.93), (21.0, 18.59), (2.45, 2.45), (15.82, 12.0), (12.82, 24.18), (9.41, 8.0), (7.44, 3.44), (22.61, 12.39)], [(28.19, 19.19), (27.07, 13.07), (30.93, 12.93), (21.0, 18.59), (2.45, 2.45), (15.81, 12.0), (12.83, 24.17), (9.41, 8.0), (7.45, 3.45), (22.61, 12.39)], [(28.19, 19.19), (27.08, 13.08), (30.92, 12.92), (21.0, 18.58), (2.46, 2.46), (15.81, 12.0), (12.83, 24.17), (9.42, 8.0), (7.45, 3.45), (22.6, 12.4)], [(28.2, 19.2), (27.08, 13.08), (30.92, 12.92), (21.0, 18.57), (2.46, 2.46), (15.8, 12.0), (12.83, 24.17), (9.43, 8.0), (7.46, 3.46), (22.6, 12.4)], [(28.2, 19.2), (27.08, 13.08), (30.92, 12.92), (21.0, 18.57), (2.47, 2.47), (15.79, 12.0), (12.84, 24.16), (9.43, 8.0), (7.46, 3.46), (22.59, 12.41)], [(28.21, 19.21), (27.09, 13.09), (30.91, 12.91), (21.0, 18.56), (2.47, 2.47), (15.79, 12.0), (12.84, 24.16), (9.44, 8.0), (7.47, 3.47), (22.59, 12.41)], [(28.21, 19.21), (27.09, 13.09), (30.91, 12.91), (21.0, 18.55), (2.48, 2.48), (15.78, 12.0), (12.85, 24.15), (9.45, 8.0), (7.47, 3.47), (22.58, 12.42)], [(28.22, 19.22), (27.1, 13.1), (30.9, 12.9), (21.0, 18.55), (2.48, 2.48), (15.77, 12.0), (12.85, 24.15), (9.45, 8.0), (7.48, 3.48), (22.58, 12.42)], [(28.22, 19.22), (27.1, 13.1), (30.9, 12.9), (21.0, 18.54), (2.49, 2.49), (15.77, 12.0), (12.86, 24.14), (9.46, 8.0), (7.48, 3.48), (22.58, 12.42)], [(28.23, 19.23), (27.11, 13.11), (30.89, 12.89), (21.0, 18.53), (2.49, 2.49), (15.76, 12.0), (12.86, 24.14), (9.47, 8.0), (7.49, 3.49), (22.57, 12.43)], [(28.23, 19.23), (27.11, 13.11), (30.89, 12.89), (21.0, 18.53), (2.5, 2.5), (15.75, 12.0), (12.87, 24.13), (9.47, 8.0), (7.49, 3.49), (22.57, 12.43)], [(28.24, 19.24), (27.12, 13.12), (30.88, 12.88), (21.0, 18.52), (2.5, 2.5), (15.75, 12.0), (12.87, 24.13), (9.48, 8.0), (7.5, 3.5), (22.56, 12.44)], [(28.24, 19.24), (27.12, 13.12), (30.88, 12.88), (21.0, 18.51), (2.5, 2.5), (15.74, 12.0), (12.88, 24.12), (9.49, 8.0), (7.5, 3.5), (22.56, 12.44)], [(28.25, 19.25), (27.13, 13.13), (30.87, 12.87), (21.0, 18.51), (2.51, 2.51), (15.73, 12.0), (12.88, 24.12), (9.49, 8.0), (7.5, 3.5), (22.55, 12.45)], [(28.25, 19.25), (27.13, 13.13), (30.87, 12.87), (21.0, 18.5), (2.51, 2.51), (15.73, 12.0), (12.89, 24.11), (9.5, 8.0), (7.51, 3.51), (22.55, 12.45)], [(28.25, 19.25), (27.14, 13.14), (30.86, 12.86), (21.0, 18.49), (2.52, 2.52), (15.72, 12.0), (12.89, 24.11), (9.51, 8.0), (7.51, 3.51), (22.54, 12.46)], [(28.26, 19.26), (27.14, 13.14), (30.86, 12.86), (21.0, 18.49), (2.52, 2.52), (15.71, 12.0), (12.9, 24.1), (9.51, 8.0), (7.52, 3.52), (22.54, 12.46)], [(28.26, 19.26), (27.15, 13.15), (30.85, 12.85), (21.0, 18.48), (2.53, 2.53), (15.71, 12.0), (12.9, 24.1), (9.52, 8.0), (7.52, 3.52), (22.53, 12.47)], [(28.27, 19.27), (27.15, 13.15), (30.85, 12.85), (21.0, 18.47), (2.53, 2.53), (15.7, 12.0), (12.91, 24.09), (9.53, 8.0), (7.53, 3.53), (22.53, 12.47)], [(28.27, 19.27), (27.16, 13.16), (30.84, 12.84), (21.0, 18.47), (2.54, 2.54), (15.69, 12.0), (12.91, 24.09), (9.53, 8.0), (7.53, 3.53), (22.52, 12.48)], [(28.28, 19.28), (27.16, 13.16), (30.84, 12.84), (21.0, 18.46), (2.54, 2.54), (15.69, 12.0), (12.92, 24.08), (9.54, 8.0), (7.54, 3.54), (22.52, 12.48)]]","[(2.43, 2.43), (2.44, 2.44), (2.44, 2.44), (2.45, 2.45), (2.45, 2.45), (2.46, 2.46), (2.46, 2.46), (2.47, 2.47), (2.47, 2.47), (2.48, 2.48), (2.48, 2.48), (2.49, 2.49), (2.49, 2.49), (2.5, 2.5), (2.5, 2.5), (2.5, 2.5), (2.51, 2.51), (2.51, 2.51), (2.52, 2.52), (2.52, 2.52), (2.53, 2.53), (2.53, 2.53), (2.54, 2.54), (2.54, 2.54)]",3.97,,,1.519
dynamic task,kh15_dt1,27,1,0,1,1,0.9864058388448029,10,"[[(14.85, 16.15), (26.87, 19.13), (14.98, 21.02), (6.77, 15.0), (11.93, 13.07), (30.63, 25.37), (22.7, 2.7), (12.06, 15.0), (15.69, 29.69), (29.37, 19.63)], [(14.85, 16.15), (26.87, 19.13), (14.99, 21.01), (6.78, 15.0), (11.92, 13.08), (30.64, 25.36), (22.7, 2.7), (12.05, 15.0), (15.68, 29.68), (29.37, 19.63)], [(14.84, 16.16), (26.86, 19.14), (14.99, 21.01), (6.79, 15.0), (11.92, 13.08), (30.64, 25.36), (22.71, 2.71), (12.05, 15.0), (15.68, 29.68), (29.38, 19.62)], [(14.84, 16.16), (26.86, 19.14), (15.0, 21.0), (6.79, 15.0), (11.92, 13.08), (30.65, 25.35), (22.71, 2.71), (12.04, 15.0), (15.67, 29.67), (29.38, 19.62)], [(14.83, 16.17), (26.85, 19.15), (15.0, 21.0), (6.8, 15.0), (11.91, 13.09), (30.65, 25.35), (22.72, 2.72), (12.03, 15.0), (15.67, 29.67), (29.39, 19.61)], [(14.83, 16.17), (26.85, 19.15), (15.0, 21.0), (6.81, 15.0), (11.91, 13.09), (30.66, 25.34), (22.72, 2.72), (12.03, 15.0), (15.67, 29.67), (29.39, 19.61)], [(14.83, 16.17), (26.84, 19.16), (15.01, 20.99), (6.81, 15.0), (11.9, 13.1), (30.66, 25.34), (22.73, 2.73), (12.02, 15.0), (15.66, 29.66), (29.4, 19.6)], [(14.82, 16.18), (26.84, 19.16), (15.01, 20.99), (6.82, 15.0), (11.9, 13.1), (30.67, 25.33), (22.73, 2.73), (12.01, 15.0), (15.66, 29.66), (29.4, 19.6)], [(14.82, 16.18), (26.83, 19.17), (15.02, 20.98), (6.83, 15.0), (11.89, 13.11), (30.67, 25.33), (22.74, 2.74), (12.01, 15.0), (15.65, 29.65), (29.41, 19.59)], [(14.81, 16.19), (26.83, 19.17), (15.02, 20.98), (6.83, 15.0), (11.89, 13.11), (30.67, 25.33), (22.74, 2.74), (12.0, 15.0), (15.65, 29.65), (29.41, 19.59)], [(14.81, 16.19), (26.83, 19.17), (15.03, 20.97), (6.84, 15.0), (11.88, 13.12), (30.68, 25.32), (22.75, 2.75), (11.99, 15.0), (15.64, 29.64), (29.42, 19.58)], [(14.8, 16.2), (26.82, 19.18), (15.03, 20.97), (6.85, 15.0), (11.88, 13.12), (30.68, 25.32), (22.75, 2.75), (11.99, 15.0), (15.64, 29.64), (29.42, 19.58)], [(14.8, 16.2), (26.82, 19.18), (15.04, 20.96), (6.85, 15.0), (11.87, 13.13), (30.69, 25.31), (22.75, 2.75), (11.98, 15.0), (15.63, 29.63), (29.42, 19.58)], [(14.79, 16.21), (26.81, 19.19), (15.04, 20.96), (6.86, 15.0), (11.87, 13.13), (30.69, 25.31), (22.76, 2.76), (11.97, 15.0), (15.63, 29.63), (29.43, 19.57)], [(14.79, 16.21), (26.81, 19.19), (15.05, 20.95), (6.87, 15.0), (11.86, 13.14), (30.7, 25.3), (22.76, 2.76), (11.97, 15.0), (15.62, 29.62), (29.43, 19.57)], [(14.78, 16.22), (26.8, 19.2), (15.05, 20.95), (6.87, 15.0), (11.86, 13.14), (30.7, 25.3), (22.77, 2.77), (11.96, 15.0), (15.62, 29.62), (29.44, 19.56)], [(14.78, 16.22), (26.8, 19.2), (15.06, 20.94), (6.88, 15.0), (11.85, 13.15), (30.71, 25.29), (22.77, 2.77), (11.95, 15.0), (15.61, 29.61), (29.44, 19.56)]]","[(26.87, 19.13), (26.87, 19.13), (26.86, 19.14), (26.86, 19.14), (26.85, 19.15), (26.85, 19.15), (26.84, 19.16), (26.84, 19.16), (26.83, 19.17), (26.83, 19.17), (26.83, 19.17), (26.82, 19.18), (26.82, 19.18), (26.81, 19.19), (26.81, 19.19), (26.8, 19.2), (26.8, 19.2)]",3.38,,,2.369
dynamic task,kh15_dt1,28,1,0,0,0,1.228644847704345,10,"[[(11.45, 5.45), (32.0, 8.61), (12.44, 29.56), (14.17, 5.17), (25.73, 30.27), (22.76, 3.0), (30.63, 11.63), (17.92, 2.08), (9.56, 29.44), (15.4, 2.6)], [(11.46, 5.46), (32.0, 8.61), (12.43, 29.57), (14.17, 5.17), (25.73, 30.27), (22.75, 3.0), (30.63, 11.63), (17.92, 2.08), (9.57, 29.43), (15.39, 2.61)], [(11.46, 5.46), (32.0, 8.62), (12.43, 29.57), (14.18, 5.18), (25.74, 30.26), (22.75, 3.0), (30.64, 11.64), (17.91, 2.09), (9.57, 29.43), (15.39, 2.61)], [(11.47, 5.47), (32.0, 8.63), (12.42, 29.58), (14.18, 5.18), (25.74, 30.26), (22.74, 3.0), (30.64, 11.64), (17.91, 2.09), (9.58, 29.42), (15.38, 2.62)], [(11.47, 5.47), (32.0, 8.63), (12.42, 29.58), (14.19, 5.19), (25.75, 30.25), (22.73, 3.0), (30.65, 11.65), (17.9, 2.1), (9.58, 29.42), (15.38, 2.62)], [(11.48, 5.48), (32.0, 8.64), (12.42, 29.58), (14.19, 5.19), (25.75, 30.25), (22.73, 3.0), (30.65, 11.65), (17.9, 2.1), (9.58, 29.42), (15.37, 2.63)], [(11.48, 5.48), (32.0, 8.65), (12.41, 29.59), (14.2, 5.2), (25.75, 30.25), (22.72, 3.0), (30.66, 11.66), (17.89, 2.11), (9.59, 29.41), (15.37, 2.63)], [(11.49, 5.49), (32.0, 8.65), (12.41, 29.59), (14.2, 5.2), (25.76, 30.24), (22.71, 3.0), (30.66, 11.66), (17.89, 2.11), (9.59, 29.41), (15.36, 2.64)], [(11.49, 5.49), (32.0, 8.66), (12.4, 29.6), (14.21, 5.21), (25.76, 30.24), (22.71, 3.0), (30.67, 11.67), (17.88, 2.12), (9.6, 29.4), (15.36, 2.64)], [(11.5, 5.5), (32.0, 8.67), (12.4, 29.6), (14.21, 5.21), (25.77, 30.23), (22.7, 3.0), (30.67, 11.67), (17.88, 2.12), (9.6, 29.4), (15.35, 2.65)], [(11.5, 5.5), (32.0, 8.67), (12.39, 29.61), (14.22, 5.22), (25.77, 30.23), (22.69, 3.0), (30.67, 11.67), (17.87, 2.13), (9.61, 29.39), (15.35, 2.65)], [(11.5, 5.5), (32.0, 8.68), (12.39, 29.61), (14.22, 5.22), (25.78, 30.22), (22.69, 3.0), (30.68, 11.68), (17.87, 2.13), (9.61, 29.39), (15.34, 2.66)], [(11.51, 5.51), (32.0, 8.69), (12.38, 29.62), (14.23, 5.23), (25.78, 30.22), (22.68, 3.0), (30.68, 11.68), (17.86, 2.14), (9.62, 29.38), (15.34, 2.66)], [(11.51, 5.51), (32.0, 8.69), (12.38, 29.62), (14.23, 5.23), (25.79, 30.21), (22.67, 3.0), (30.69, 11.69), (17.86, 2.14), (9.62, 29.38), (15.33, 2.67)], [(11.52, 5.52), (32.0, 8.7), (12.37, 29.63), (14.24, 5.24), (25.79, 30.21), (22.67, 3.0), (30.69, 11.69), (17.85, 2.15), (9.63, 29.37), (15.33, 2.67)], [(11.52, 5.52), (32.0, 8.71), (12.37, 29.63), (14.24, 5.24), (25.8, 30.2), (22.66, 3.0), (30.7, 11.7), (17.85, 2.15), (9.63, 29.37), (15.33, 2.67)], [(11.53, 5.53), (32.0, 8.71), (12.36, 29.64), (14.25, 5.25), (25.8, 30.2), (22.65, 3.0), (30.7, 11.7), (17.84, 2.16), (9.64, 29.36), (15.32, 2.68)], [(11.53, 5.53), (32.0, 8.72), (12.36, 29.64), (14.25, 5.25), (25.81, 30.19), (22.65, 3.0), (30.71, 11.71), (17.84, 2.16), (9.64, 29.36), (15.32, 2.68)], [(11.54, 5.54), (32.0, 8.73), (12.35, 29.65), (14.25, 5.25), (25.81, 30.19), (22.64, 3.0), (30.71, 11.71), (17.83, 2.17), (9.65, 29.35), (15.31, 2.69)], [(11.54, 5.54), (32.0, 8.73), (12.35, 29.65), (14.26, 5.26), (25.82, 30.18), (22.63, 3.0), (30.72, 11.72), (17.83, 2.17), (9.65, 29.35), (15.31, 2.69)], [(11.55, 5.55), (32.0, 8.74), (12.34, 29.66), (14.26, 5.26), (25.82, 30.18), (22.63, 3.0), (30.72, 11.72), (17.83, 2.17), (9.66, 29.34), (15.3, 2.7)], [(11.55, 5.55), (32.0, 8.75), (12.34, 29.66), (14.27, 5.27), (25.83, 30.17), (22.62, 3.0), (30.73, 11.73), (17.82, 2.18), (9.66, 29.34), (15.3, 2.7)]]","[(15.4, 2.6), (15.39, 2.61), (15.39, 2.61), (15.38, 2.62), (15.38, 2.62), (15.37, 2.63), (15.37, 2.63), (15.36, 2.64), (15.36, 2.64), (15.35, 2.65), (15.35, 2.65), (15.34, 2.66), (15.34, 2.66), (15.33, 2.67), (15.33, 2.67), (15.33, 2.67), (15.32, 2.68), (15.32, 2.68), (15.31, 2.69), (15.31, 2.69), (15.3, 2.7), (15.3, 2.7)]",3.91,,,1.966
dynamic task,kh15_dt1,29,0,0,0,1,1.48203179688835,10,"[[(12.0, 19.35), (31.0, 22.54), (5.16, 23.0), (11.96, 23.04), (4.4, 9.4), (4.58, 4.42), (6.99, 32.0), (24.95, 27.05), (22.0, 4.43), (5.58, 25.0)], [(12.0, 19.36), (31.0, 22.53), (5.15, 23.0), (11.96, 23.04), (4.4, 9.4), (4.58, 4.42), (6.99, 32.0), (24.94, 27.06), (22.0, 4.43), (5.59, 25.0)], [(12.0, 19.37), (31.0, 22.53), (5.15, 23.0), (11.97, 23.03), (4.39, 9.39), (4.58, 4.42), (7.0, 32.0), (24.94, 27.06), (22.0, 4.42), (5.59, 25.0)], [(12.0, 19.37), (31.0, 22.52), (5.14, 23.0), (11.97, 23.03), (4.39, 9.39), (4.57, 4.43), (7.01, 32.0), (24.93, 27.07), (22.0, 4.41), (5.6, 25.0)], [(12.0, 19.38), (31.0, 22.51), (5.13, 23.0), (11.98, 23.02), (4.38, 9.38), (4.57, 4.43), (7.01, 32.0), (24.93, 27.07), (22.0, 4.41), (5.61, 25.0)], [(12.0, 19.39), (31.0, 22.51), (5.13, 23.0), (11.98, 23.02), (4.38, 9.38), (4.56, 4.44), (7.02, 32.0), (24.92, 27.08), (22.0, 4.4), (5.61, 25.0)], [(12.0, 19.39), (31.0, 22.5), (5.12, 23.0), (11.99, 23.01), (4.37, 9.37), (4.56, 4.44), (7.03, 32.0), (24.92, 27.08), (22.0, 4.39), (5.62, 25.0)], [(12.0, 19.4), (31.0, 22.49), (5.11, 23.0), (11.99, 23.01), (4.37, 9.37), (4.55, 4.45), (7.03, 32.0), (24.92, 27.08), (22.0, 4.39), (5.63, 25.0)], [(12.0, 19.41), (31.0, 22.49), (5.11, 23.0), (12.0, 23.0), (4.36, 9.36), (4.55, 4.45), (7.04, 32.0), (24.91, 27.09), (22.0, 4.38), (5.63, 25.0)], [(12.0, 19.41), (31.0, 22.48), (5.1, 23.0), (12.0, 23.0), (4.36, 9.36), (4.54, 4.46), (7.05, 32.0), (24.91, 27.09), (22.0, 4.37), (5.64, 25.0)], [(12.0, 19.42), (31.0, 22.47), (5.09, 23.0), (12.0, 23.0), (4.35, 9.35), (4.54, 4.46), (7.05, 32.0), (24.9, 27.1), (22.0, 4.37), (5.65, 25.0)], [(12.0, 19.43), (31.0, 22.47), (5.09, 23.0), (12.01, 22.99), (4.35, 9.35), (4.53, 4.47), (7.06, 32.0), (24.9, 27.1), (22.0, 4.36), (5.65, 25.0)], [(12.0, 19.43), (31.0, 22.46), (5.08, 23.0), (12.01, 22.99), (4.34, 9.34), (4.53, 4.47), (7.07, 32.0), (24.89, 27.11), (22.0, 4.35), (5.66, 25.0)], [(12.0, 19.44), (31.0, 22.45), (5.07, 23.0), (12.02, 22.98), (4.34, 9.34), (4.52, 4.48), (7.07, 32.0), (24.89, 27.11), (22.0, 4.35), (5.67, 25.0)], [(12.0, 19.45), (31.0, 22.45), (5.07, 23.0), (12.02, 22.98), (4.33, 9.33), (4.52, 4.48), (7.08, 32.0), (24.88, 27.12), (22.0, 4.34), (5.67, 25.0)], [(12.0, 19.45), (31.0, 22.44), (5.06, 23.0), (12.03, 22.97), (4.33, 9.33), (4.51, 4.49), (7.09, 32.0), (24.88, 27.12), (22.0, 4.33), (5.68, 25.0)], [(12.0, 19.46), (31.0, 22.43), (5.05, 23.0), (12.03, 22.97), (4.33, 9.33), (4.51, 4.49), (7.09, 32.0), (24.87, 27.13), (22.0, 4.33), (5.69, 25.0)], [(12.0, 19.47), (31.0, 22.43), (5.05, 23.0), (12.04, 22.96), (4.32, 9.32), (4.5, 4.5), (7.1, 32.0), (24.87, 27.13), (22.0, 4.32), (5.69, 25.0)], [(12.0, 19.47), (31.0, 22.42), (5.04, 23.0), (12.04, 22.96), (4.32, 9.32), (4.5, 4.5), (7.11, 32.0), (24.86, 27.14), (22.0, 4.31), (5.7, 25.0)], [(12.0, 19.48), (31.0, 22.41), (5.03, 23.0), (12.05, 22.95), (4.31, 9.31), (4.5, 4.5), (7.11, 32.0), (24.86, 27.14), (22.0, 4.31), (5.71, 25.0)], [(12.0, 19.49), (31.0, 22.41), (5.03, 23.0), (12.05, 22.95), (4.31, 9.31), (4.49, 4.51), (7.12, 32.0), (24.85, 27.15), (22.0, 4.3), (5.71, 25.0)], [(12.0, 19.49), (31.0, 22.4), (5.02, 23.0), (12.06, 22.94), (4.3, 9.3), (4.49, 4.51), (7.13, 32.0), (24.85, 27.15), (22.0, 4.29), (5.72, 25.0)], [(12.0, 19.5), (31.0, 22.39), (5.01, 23.0), (12.06, 22.94), (4.3, 9.3), (4.48, 4.52), (7.13, 32.0), (24.84, 27.16), (22.0, 4.29), (5.73, 25.0)], [(12.0, 19.51), (31.0, 22.39), (5.01, 23.0), (12.07, 22.93), (4.29, 9.29), (4.48, 4.52), (7.14, 32.0), (24.84, 27.16), (22.0, 4.28), (5.73, 25.0)], [(12.0, 19.51), (31.0, 22.38), (5.0, 23.0), (12.07, 22.93), (4.29, 9.29), (4.47, 4.53), (7.15, 32.0), (24.83, 27.17), (22.0, 4.27), (5.74, 25.0)], [(12.0, 19.52), (31.0, 22.37), (4.99, 23.0), (12.08, 22.92), (4.28, 9.28), (4.47, 4.53), (7.15, 32.0), (24.83, 27.17), (22.0, 4.27), (5.75, 25.0)], [(12.0, 19.53), (31.0, 22.37), (4.99, 23.0), (12.08, 22.92), (4.28, 9.28), (4.46, 4.54), (7.16, 32.0), (24.83, 27.17), (22.0, 4.26), (5.75, 25.0)]]",,0.0,,,1.464
dynamic task,kh15_dt1,30,0,0,0,1,1.5764405609579626,10,"[[(6.0, 17.49), (13.0, 22.59), (4.16, 9.84), (18.0, 5.37), (13.73, 16.73), (8.43, 24.0), (21.19, 28.0), (26.52, 21.52), (14.97, 23.97), (27.17, 15.17)], [(6.0, 17.49), (13.0, 22.58), (4.17, 9.83), (18.0, 5.36), (13.73, 16.73), (8.43, 24.0), (21.19, 28.0), (26.52, 21.52), (14.97, 23.97), (27.16, 15.16)], [(6.0, 17.5), (13.0, 22.57), (4.17, 9.83), (18.0, 5.35), (13.74, 16.74), (8.44, 24.0), (21.2, 28.0), (26.51, 21.51), (14.96, 23.96), (27.16, 15.16)], [(6.0, 17.51), (13.0, 22.57), (4.17, 9.83), (18.0, 5.35), (13.74, 16.74), (8.45, 24.0), (21.21, 28.0), (26.51, 21.51), (14.96, 23.96), (27.15, 15.15)], [(6.0, 17.51), (13.0, 22.56), (4.18, 9.82), (18.0, 5.34), (13.75, 16.75), (8.45, 24.0), (21.21, 28.0), (26.5, 21.5), (14.95, 23.95), (27.15, 15.15)], [(6.0, 17.52), (13.0, 22.55), (4.18, 9.82), (18.0, 5.33), (13.75, 16.75), (8.46, 24.0), (21.22, 28.0), (26.5, 21.5), (14.95, 23.95), (27.14, 15.14)], [(6.0, 17.53), (13.0, 22.55), (4.19, 9.81), (18.0, 5.33), (13.75, 16.75), (8.47, 24.0), (21.23, 28.0), (26.5, 21.5), (14.94, 23.94), (27.14, 15.14)], [(6.0, 17.53), (13.0, 22.54), (4.19, 9.81), (18.0, 5.32), (13.76, 16.76), (8.47, 24.0), (21.23, 28.0), (26.49, 21.49), (14.94, 23.94), (27.13, 15.13)], [(6.0, 17.54), (13.0, 22.53), (4.2, 9.8), (18.0, 5.31), (13.76, 16.76), (8.48, 24.0), (21.24, 28.0), (26.49, 21.49), (14.93, 23.93), (27.13, 15.13)], [(6.0, 17.55), (13.0, 22.53), (4.2, 9.8), (18.0, 5.31), (13.77, 16.77), (8.49, 24.0), (21.25, 28.0), (26.48, 21.48), (14.93, 23.93), (27.12, 15.12)], [(6.0, 17.55), (13.0, 22.52), (4.21, 9.79), (18.0, 5.3), (13.77, 16.77), (8.49, 24.0), (21.25, 28.0), (26.48, 21.48), (14.92, 23.92), (27.12, 15.12)], [(6.0, 17.56), (13.0, 22.51), (4.21, 9.79), (18.0, 5.29), (13.78, 16.78), (8.5, 24.0), (21.26, 28.0), (26.47, 21.47), (14.92, 23.92), (27.11, 15.11)], [(6.0, 17.57), (13.0, 22.51), (4.22, 9.78), (18.0, 5.29), (13.78, 16.78), (8.51, 24.0), (21.27, 28.0), (26.47, 21.47), (14.92, 23.92), (27.11, 15.11)], [(6.0, 17.57), (13.0, 22.5), (4.22, 9.78), (18.0, 5.28), (13.79, 16.79), (8.51, 24.0), (21.27, 28.0), (26.46, 21.46), (14.91, 23.91), (27.1, 15.1)], [(6.0, 17.58), (13.0, 22.49), (4.23, 9.77), (18.0, 5.27), (13.79, 16.79), (8.52, 24.0), (21.28, 28.0), (26.46, 21.46), (14.91, 23.91), (27.1, 15.1)], [(6.0, 17.59), (13.0, 22.49), (4.23, 9.77), (18.0, 5.27), (13.8, 16.8), (8.53, 24.0), (21.29, 28.0), (26.45, 21.45), (14.9, 23.9), (27.09, 15.09)], [(6.0, 17.59), (13.0, 22.48), (4.24, 9.76), (18.0, 5.26), (13.8, 16.8), (8.53, 24.0), (21.29, 28.0), (26.45, 21.45), (14.9, 23.9), (27.09, 15.09)], [(6.0, 17.6), (13.0, 22.47), (4.24, 9.76), (18.0, 5.25), (13.81, 16.81), (8.54, 24.0), (21.3, 28.0), (26.44, 21.44), (14.89, 23.89), (27.08, 15.08)], [(6.0, 17.61), (13.0, 22.47), (4.25, 9.75), (18.0, 5.25), (13.81, 16.81), (8.55, 24.0), (21.31, 28.0), (26.44, 21.44), (14.89, 23.89), (27.08, 15.08)], [(6.0, 17.61), (13.0, 22.46), (4.25, 9.75), (18.0, 5.24), (13.82, 16.82), (8.55, 24.0), (21.31, 28.0), (26.43, 21.43), (14.88, 23.88), (27.08, 15.08)], [(6.0, 17.62), (13.0, 22.45), (4.25, 9.75), (18.0, 5.23), (13.82, 16.82), (8.56, 24.0), (21.32, 28.0), (26.43, 21.43), (14.88, 23.88), (27.07, 15.07)], [(6.0, 17.63), (13.0, 22.45), (4.26, 9.74), (18.0, 5.23), (13.83, 16.83), (8.57, 24.0), (21.33, 28.0), (26.42, 21.42), (14.87, 23.87), (27.07, 15.07)], [(6.0, 17.63), (13.0, 22.44), (4.26, 9.74), (18.0, 5.22), (13.83, 16.83), (8.57, 24.0), (21.33, 28.0), (26.42, 21.42), (14.87, 23.87), (27.06, 15.06)], [(6.0, 17.64), (13.0, 22.43), (4.27, 9.73), (18.0, 5.21), (13.83, 16.83), (8.58, 24.0), (21.34, 28.0), (26.42, 21.42), (14.86, 23.86), (27.06, 15.06)], [(6.0, 17.65), (13.0, 22.43), (4.27, 9.73), (18.0, 5.21), (13.84, 16.84), (8.59, 24.0), (21.35, 28.0), (26.41, 21.41), (14.86, 23.86), (27.05, 15.05)], [(6.0, 17.65), (13.0, 22.42), (4.28, 9.72), (18.0, 5.2), (13.84, 16.84), (8.59, 24.0), (21.35, 28.0), (26.41, 21.41), (14.85, 23.85), (27.05, 15.05)], [(6.0, 17.66), (13.0, 22.41), (4.28, 9.72), (18.0, 5.19), (13.85, 16.85), (8.6, 24.0), (21.36, 28.0), (26.4, 21.4), (14.85, 23.85), (27.04, 15.04)], [(6.0, 17.67), (13.0, 22.41), (4.29, 9.71), (18.0, 5.19), (13.85, 16.85), (8.61, 24.0), (21.37, 28.0), (26.4, 21.4), (14.84, 23.84), (27.04, 15.04)], [(6.0, 17.67), (13.0, 22.4), (4.29, 9.71), (18.0, 5.18), (13.86, 16.86), (8.61, 24.0), (21.37, 28.0), (26.39, 21.39), (14.84, 23.84), (27.03, 15.03)]]",,0.0,,,0.354
dynamic task,kh15_dt1,31,1,0,1,1,1.2723158628600686,10,"[[(3.6, 12.6), (26.88, 28.88), (30.46, 11.46), (6.15, 23.15), (6.85, 30.15), (2.0, 20.24), (23.45, 14.0), (20.54, 23.54), (6.0, 26.55), (3.66, 30.66)], [(3.6, 12.6), (26.87, 28.87), (30.47, 11.47), (6.15, 23.15), (6.86, 30.14), (2.0, 20.23), (23.44, 14.0), (20.55, 23.55), (6.0, 26.56), (3.67, 30.67)], [(3.61, 12.61), (26.87, 28.87), (30.47, 11.47), (6.16, 23.16), (6.86, 30.14), (2.0, 20.23), (23.43, 14.0), (20.55, 23.55), (6.0, 26.57), (3.67, 30.67)], [(3.61, 12.61), (26.86, 28.86), (30.48, 11.48), (6.16, 23.16), (6.87, 30.13), (2.0, 20.22), (23.43, 14.0), (20.56, 23.56), (6.0, 26.57), (3.67, 30.67)], [(3.62, 12.62), (26.86, 28.86), (30.48, 11.48), (6.17, 23.17), (6.87, 30.13), (2.0, 20.21), (23.42, 14.0), (20.56, 23.56), (6.0, 26.58), (3.68, 30.68)], [(3.62, 12.62), (26.85, 28.85), (30.49, 11.49), (6.17, 23.17), (6.88, 30.12), (2.0, 20.21), (23.41, 14.0), (20.57, 23.57), (6.0, 26.59), (3.68, 30.68)], [(3.63, 12.63), (26.85, 28.85), (30.49, 11.49), (6.17, 23.17), (6.88, 30.12), (2.0, 20.2), (23.41, 14.0), (20.57, 23.57), (6.0, 26.59), (3.69, 30.69)], [(3.63, 12.63), (26.84, 28.84), (30.5, 11.5), (6.18, 23.18), (6.89, 30.11), (2.0, 20.19), (23.4, 14.0), (20.58, 23.58), (6.0, 26.6), (3.69, 30.69)], [(3.64, 12.64), (26.84, 28.84), (30.5, 11.5), (6.18, 23.18), (6.89, 30.11), (2.0, 20.19), (23.39, 14.0), (20.58, 23.58), (6.0, 26.61), (3.7, 30.7)], [(3.64, 12.64), (26.83, 28.83), (30.5, 11.5), (6.19, 23.19), (6.9, 30.1), (2.0, 20.18), (23.39, 14.0), (20.58, 23.58), (6.0, 26.61), (3.7, 30.7)], [(3.65, 12.65), (26.83, 28.83), (30.51, 11.51), (6.19, 23.19), (6.9, 30.1), (2.0, 20.17), (23.38, 14.0), (20.59, 23.59), (6.0, 26.62), (3.71, 30.71)], [(3.65, 12.65), (26.83, 28.83), (30.51, 11.51), (6.2, 23.2), (6.91, 30.09), (2.0, 20.17), (23.37, 14.0), (20.59, 23.59), (6.0, 26.63), (3.71, 30.71)], [(3.66, 12.66), (26.82, 28.82), (30.52, 11.52), (6.2, 23.2), (6.91, 30.09), (2.0, 20.16), (23.37, 14.0), (20.6, 23.6), (6.0, 26.63), (3.72, 30.72)], [(3.66, 12.66), (26.82, 28.82), (30.52, 11.52), (6.21, 23.21), (6.92, 30.08), (2.0, 20.15), (23.36, 14.0), (20.6, 23.6), (6.0, 26.64), (3.72, 30.72)], [(3.67, 12.67), (26.81, 28.81), (30.53, 11.53), (6.21, 23.21), (6.92, 30.08), (2.0, 20.15), (23.35, 14.0), (20.61, 23.61), (6.0, 26.65), (3.73, 30.73)], [(3.67, 12.67), (26.81, 28.81), (30.53, 11.53), (6.22, 23.22), (6.92, 30.08), (2.0, 20.14), (23.35, 14.0), (20.61, 23.61), (6.0, 26.65), (3.73, 30.73)], [(3.67, 12.67), (26.8, 28.8), (30.54, 11.54), (6.22, 23.22), (6.93, 30.07), (2.0, 20.13), (23.34, 14.0), (20.62, 23.62), (6.0, 26.66), (3.74, 30.74)], [(3.68, 12.68), (26.8, 28.8), (30.54, 11.54), (6.23, 23.23), (6.93, 30.07), (2.0, 20.13), (23.33, 14.0), (20.62, 23.62), (6.0, 26.67), (3.74, 30.74)], [(3.68, 12.68), (26.79, 28.79), (30.55, 11.55), (6.23, 23.23), (6.94, 30.06), (2.0, 20.12), (23.33, 14.0), (20.63, 23.63), (6.0, 26.67), (3.75, 30.75)], [(3.69, 12.69), (26.79, 28.79), (30.55, 11.55), (6.24, 23.24), (6.94, 30.06), (2.0, 20.11), (23.32, 14.0), (20.63, 23.63), (6.0, 26.68), (3.75, 30.75)], [(3.69, 12.69), (26.78, 28.78), (30.56, 11.56), (6.24, 23.24), (6.95, 30.05), (2.0, 20.11), (23.31, 14.0), (20.64, 23.64), (6.0, 26.69), (3.75, 30.75)], [(3.7, 12.7), (26.78, 28.78), (30.56, 11.56), (6.25, 23.25), (6.95, 30.05), (2.0, 20.1), (23.31, 14.0), (20.64, 23.64), (6.0, 26.69), (3.76, 30.76)], [(3.7, 12.7), (26.77, 28.77), (30.57, 11.57), (6.25, 23.25), (6.96, 30.04), (2.0, 20.09), (23.3, 14.0), (20.65, 23.65), (6.0, 26.7), (3.76, 30.76)]]","[(26.88, 28.88), (26.87, 28.87), (26.87, 28.87), (26.86, 28.86), (26.86, 28.86), (26.85, 28.85), (26.85, 28.85), (26.84, 28.84), (26.84, 28.84), (26.83, 28.83), (26.83, 28.83), (26.83, 28.83), (26.82, 28.82), (26.82, 28.82), (26.81, 28.81), (26.81, 28.81), (26.8, 28.8), (26.8, 28.8), (26.79, 28.79), (26.79, 28.79), (26.78, 28.78), (26.78, 28.78), (26.77, 28.77)]",4.14,,,1.382
dynamic task,kh15_dt1,32,1,0,1,1,0.8238817713031494,10,"[[(24.0, 3.9), (3.61, 24.0), (15.0, 27.7), (13.03, 19.0), (9.0, 4.24), (26.04, 29.0), (23.0, 8.31), (3.32, 31.32), (26.0, 22.05), (14.62, 18.38)], [(24.0, 3.91), (3.62, 24.0), (15.0, 27.71), (13.04, 19.0), (9.0, 4.25), (26.05, 29.0), (23.0, 8.32), (3.33, 31.33), (26.0, 22.05), (14.61, 18.39)], [(24.0, 3.91), (3.63, 24.0), (15.0, 27.71), (13.05, 19.0), (9.0, 4.25), (26.05, 29.0), (23.0, 8.33), (3.33, 31.33), (26.0, 22.04), (14.61, 18.39)], [(24.0, 3.92), (3.63, 24.0), (15.0, 27.72), (13.05, 19.0), (9.0, 4.26), (26.06, 29.0), (23.0, 8.33), (3.33, 31.33), (26.0, 22.03), (14.6, 18.4)], [(24.0, 3.93), (3.64, 24.0), (15.0, 27.73), (13.06, 19.0), (9.0, 4.27), (26.07, 29.0), (23.0, 8.34), (3.34, 31.34), (26.0, 22.03), (14.6, 18.4)], [(24.0, 3.93), (3.65, 24.0), (15.0, 27.73), (13.07, 19.0), (9.0, 4.27), (26.07, 29.0), (23.0, 8.35), (3.34, 31.34), (26.0, 22.02), (14.59, 18.41)], [(24.0, 3.94), (3.65, 24.0), (15.0, 27.74), (13.07, 19.0), (9.0, 4.28), (26.08, 29.0), (23.0, 8.35), (3.35, 31.35), (26.0, 22.01), (14.59, 18.41)], [(24.0, 3.95), (3.66, 24.0), (15.0, 27.75), (13.08, 19.0), (9.0, 4.29), (26.09, 29.0), (23.0, 8.36), (3.35, 31.35), (26.0, 22.01), (14.58, 18.42)], [(24.0, 3.95), (3.67, 24.0), (15.0, 27.75), (13.09, 19.0), (9.0, 4.29), (26.09, 29.0), (23.0, 8.37), (3.36, 31.36), (26.0, 22.0), (14.58, 18.42)], [(24.0, 3.96), (3.67, 24.0), (15.0, 27.76), (13.09, 19.0), (9.0, 4.3), (26.1, 29.0), (23.0, 8.37), (3.36, 31.36), (26.0, 21.99), (14.58, 18.42)], [(24.0, 3.97), (3.68, 24.0), (15.0, 27.77), (13.1, 19.0), (9.0, 4.31), (26.11, 29.0), (23.0, 8.38), (3.37, 31.37), (26.0, 21.99), (14.57, 18.43)], [(24.0, 3.97), (3.69, 24.0), (15.0, 27.77), (13.11, 19.0), (9.0, 4.31), (26.11, 29.0), (23.0, 8.39), (3.37, 31.37), (26.0, 21.98), (14.57, 18.43)], [(24.0, 3.98), (3.69, 24.0), (15.0, 27.78), (13.11, 19.0), (9.0, 4.32), (26.12, 29.0), (23.0, 8.39), (3.38, 31.38), (26.0, 21.97), (14.56, 18.44)], [(24.0, 3.99), (3.7, 24.0), (15.0, 27.79), (13.12, 19.0), (9.0, 4.33), (26.13, 29.0), (23.0, 8.4), (3.38, 31.38), (26.0, 21.97), (14.56, 18.44)]]","[(13.03, 19.0), (13.04, 19.0), (13.05, 19.0), (13.05, 19.0), (13.06, 19.0), (13.07, 19.0), (13.07, 19.0), (13.08, 19.0), (13.09, 19.0), (13.09, 19.0), (13.1, 19.0), (13.11, 19.0), (13.11, 19.0), (13.12, 19.0)]",3.64,,,1.515
