Task Type,Participant ID,Trial,Target Present,Target orientation,Response,Correct,Reaction Time (s),Num Gabors,Gabor Positions,Target Trajectory,Speed (px/s),FixOnTargetTime(s),LastFixIndex,CalibrationDrift(deg)
dynamic task,kh8_dt2,1,0,0,0,1,1.0730615466668496,10,"[[(15.36, 17.36), (26.31, 22.31), (23.1, 29.1), (13.27, 8.73), (19.9, 8.9), (16.95, 20.05), (7.74, 23.74), (15.79, 24.79), (23.7, 19.0), (31.0, 18.89)], [(15.47, 17.47), (26.42, 22.42), (23.21, 29.21), (13.16, 8.84), (19.79, 8.79), (16.85, 20.15), (7.64, 23.64), (15.69, 24.69), (23.56, 19.0), (31.0, 19.04)], [(15.57, 17.57), (26.52, 22.52), (23.31, 29.31), (13.06, 8.94), (19.69, 8.69), (16.74, 20.26), (7.53, 23.53), (15.58, 24.58), (23.41, 19.0), (31.0, 19.19)], [(15.68, 17.68), (26.63, 22.63), (23.42, 29.42), (12.95, 9.05), (19.58, 8.58), (16.64, 20.36), (7.43, 23.43), (15.48, 24.48), (23.26, 19.0), (31.0, 19.33)], [(15.78, 17.78), (26.73, 22.73), (23.52, 29.52), (12.85, 9.15), (19.48, 8.48), (16.53, 20.47), (7.32, 23.32), (15.37, 24.37), (23.11, 19.0), (31.0, 19.48)], [(15.89, 17.89), (26.84, 22.84), (23.63, 29.63), (12.74, 9.26), (19.37, 8.37), (16.43, 20.57), (7.22, 23.22), (15.27, 24.27), (22.96, 19.0), (31.0, 19.63)], [(15.99, 17.99), (26.94, 22.94), (23.73, 29.73), (12.64, 9.36), (19.27, 8.27), (16.32, 20.68), (7.11, 23.11), (15.16, 24.16), (22.81, 19.0), (31.0, 19.78)], [(16.1, 18.1), (27.05, 23.05), (23.84, 29.84), (12.53, 9.47), (19.16, 8.16), (16.22, 20.78), (7.01, 23.01), (15.06, 24.06), (22.67, 19.0), (31.0, 19.93)], [(16.2, 18.2), (27.15, 23.15), (23.94, 29.94), (12.43, 9.57), (19.06, 8.06), (16.11, 20.89), (6.9, 22.9), (14.95, 23.95), (22.52, 19.0), (31.0, 20.07)], [(16.31, 18.31), (27.26, 23.26), (24.05, 30.05), (12.32, 9.68), (18.95, 7.95), (16.01, 20.99), (6.8, 22.8), (14.85, 23.85), (22.37, 19.0), (31.0, 20.22)], [(16.41, 18.41), (27.36, 23.36), (24.15, 30.15), (12.22, 9.78), (18.85, 7.85), (15.9, 21.1), (6.69, 22.69), (14.74, 23.74), (22.22, 19.0), (31.0, 20.37)], [(16.52, 18.52), (27.47, 23.47), (24.26, 30.26), (12.11, 9.89), (18.74, 7.74), (15.8, 21.2), (6.59, 22.59), (14.64, 23.64), (22.07, 19.0), (31.0, 20.52)], [(16.62, 18.62), (27.57, 23.57), (24.36, 30.36), (12.01, 9.99), (18.64, 7.64), (15.69, 21.31), (6.48, 22.48), (14.53, 23.53), (21.93, 19.0), (31.0, 20.67)], [(16.73, 18.73), (27.68, 23.68), (24.47, 30.47), (11.9, 10.1), (18.53, 7.53), (15.59, 21.41), (6.38, 22.38), (14.43, 23.43), (21.78, 19.0), (31.0, 20.81)], [(16.83, 18.83), (27.78, 23.78), (24.57, 30.57), (11.8, 10.2), (18.43, 7.43), (15.48, 21.52), (6.27, 22.27), (14.32, 23.32), (21.63, 19.0), (31.0, 20.96)], [(16.93, 18.93), (27.89, 23.89), (24.68, 30.68), (11.69, 10.31), (18.32, 7.32), (15.38, 21.62), (6.17, 22.17), (14.22, 23.22), (21.48, 19.0), (31.0, 21.11)], [(17.04, 19.04), (27.99, 23.99), (24.78, 30.78), (11.59, 10.41), (18.22, 7.22), (15.27, 21.73), (6.17, 22.32), (14.11, 23.11), (21.33, 19.0), (31.0, 21.26)], [(17.14, 19.14), (28.1, 24.1), (24.89, 30.89), (11.48, 10.52), (18.11, 7.11), (15.17, 21.83), (6.17, 22.47), (14.01, 23.01), (21.19, 19.0), (31.0, 21.41)], [(17.25, 19.25), (28.2, 24.2), (24.99, 30.99), (11.38, 10.62), (18.01, 7.01), (15.27, 21.93), (6.17, 22.61), (13.9, 22.9), (21.04, 19.0), (31.0, 21.56)]]",,0.0,,,0.286
dynamic task,kh8_dt2,2,1,0,1,1,1.1668664888888998,10,"[[(5.9, 3.1), (30.37, 3.63), (11.21, 18.79), (30.85, 4.15), (12.0, 18.19), (7.94, 8.06), (15.26, 13.0), (17.81, 5.0), (24.44, 2.0), (28.21, 8.21)], [(5.79, 3.21), (30.27, 3.73), (11.31, 18.69), (30.74, 4.26), (12.0, 18.33), (8.05, 7.95), (15.11, 13.0), (17.67, 5.0), (24.59, 2.0), (28.31, 8.31)], [(5.69, 3.31), (30.16, 3.84), (11.42, 18.58), (30.64, 4.36), (12.0, 18.48), (8.15, 7.85), (14.96, 13.0), (17.52, 5.0), (24.74, 2.0), (28.42, 8.42)], [(5.58, 3.42), (30.06, 3.94), (11.52, 18.48), (30.53, 4.47), (12.0, 18.63), (8.26, 7.74), (14.81, 13.0), (17.37, 5.0), (24.89, 2.0), (28.52, 8.52)], [(5.48, 3.52), (29.95, 4.05), (11.63, 18.37), (30.43, 4.57), (12.0, 18.78), (8.36, 7.64), (14.67, 13.0), (17.22, 5.0), (25.04, 2.0), (28.63, 8.63)], [(5.37, 3.63), (29.85, 4.15), (11.73, 18.27), (30.32, 4.68), (12.0, 18.93), (8.47, 7.53), (14.52, 13.0), (17.07, 5.0), (25.19, 2.0), (28.73, 8.73)], [(5.27, 3.73), (29.74, 4.26), (11.84, 18.16), (30.22, 4.78), (12.0, 19.07), (8.57, 7.43), (14.37, 13.0), (16.93, 5.0), (25.33, 2.0), (28.84, 8.84)], [(5.16, 3.84), (29.64, 4.36), (11.94, 18.06), (30.11, 4.89), (12.0, 19.22), (8.68, 7.32), (14.22, 13.0), (16.78, 5.0), (25.48, 2.0), (28.94, 8.94)], [(5.06, 3.94), (29.53, 4.47), (12.05, 17.95), (30.01, 4.99), (12.0, 19.37), (8.78, 7.22), (14.07, 13.0), (16.63, 5.0), (25.63, 2.0), (29.05, 9.05)], [(4.95, 4.05), (29.43, 4.57), (12.15, 17.85), (29.9, 5.1), (12.0, 19.52), (8.89, 7.11), (13.93, 13.0), (16.48, 5.0), (25.78, 2.0), (29.15, 9.15)], [(4.85, 4.15), (29.32, 4.68), (12.26, 17.74), (29.8, 5.2), (12.0, 19.67), (8.99, 7.01), (13.78, 13.0), (16.33, 5.0), (25.93, 2.0), (29.26, 9.26)], [(4.74, 4.26), (29.22, 4.78), (12.36, 17.64), (29.69, 5.31), (12.0, 19.81), (9.1, 6.9), (13.63, 13.0), (16.19, 5.0), (26.07, 2.0), (29.36, 9.36)], [(4.64, 4.36), (29.11, 4.89), (12.47, 17.53), (29.59, 5.41), (12.0, 19.96), (9.2, 6.8), (13.48, 13.0), (16.04, 5.0), (26.22, 2.0), (29.47, 9.47)], [(4.53, 4.47), (29.01, 4.99), (12.57, 17.43), (29.48, 5.52), (12.0, 20.11), (9.31, 6.69), (13.33, 13.0), (15.89, 5.0), (26.37, 2.0), (29.57, 9.57)], [(4.43, 4.57), (28.9, 5.1), (12.68, 17.32), (29.38, 5.62), (12.0, 20.26), (9.41, 6.59), (13.19, 13.0), (15.74, 5.0), (26.52, 2.0), (29.68, 9.68)], [(4.32, 4.68), (28.8, 5.2), (12.78, 17.22), (29.27, 5.73), (12.0, 20.41), (9.52, 6.48), (13.04, 13.0), (15.59, 5.0), (26.67, 2.0), (29.78, 9.78)], [(4.22, 4.78), (28.69, 5.31), (12.89, 17.11), (29.17, 5.83), (12.0, 20.56), (9.62, 6.38), (12.89, 13.0), (15.44, 5.0), (26.81, 2.0), (29.89, 9.89)], [(4.11, 4.89), (28.59, 5.41), (12.99, 17.01), (29.07, 5.73), (12.0, 20.7), (9.73, 6.27), (12.74, 13.0), (15.3, 5.0), (26.96, 2.0), (29.99, 9.99)], [(4.01, 4.99), (28.48, 5.52), (13.1, 16.9), (28.96, 5.62), (12.0, 20.85), (9.83, 6.17), (12.59, 13.0), (15.15, 5.0), (27.11, 2.0), (30.1, 10.1)], [(3.9, 5.1), (28.38, 5.62), (13.2, 16.8), (28.86, 5.52), (12.0, 21.0), (9.83, 6.02), (12.44, 13.0), (15.0, 5.0), (27.26, 2.0), (30.2, 10.2)], [(3.8, 5.2), (28.27, 5.73), (13.31, 16.69), (28.75, 5.41), (12.1, 21.1), (9.83, 5.87), (12.3, 13.0), (15.1, 5.1), (27.41, 2.0), (30.31, 10.31)]]","[(28.21, 8.21), (28.31, 8.31), (28.42, 8.42), (28.52, 8.52), (28.63, 8.63), (28.73, 8.73), (28.84, 8.84), (28.94, 8.94), (29.05, 9.05), (29.15, 9.15), (29.26, 9.26), (29.36, 9.36), (29.47, 9.47), (29.57, 9.57), (29.68, 9.68), (29.78, 9.78), (29.89, 9.89), (29.99, 9.99), (30.1, 10.1), (30.2, 10.2), (30.31, 10.31)]",86.44,,,1.152
dynamic task,kh8_dt2,3,1,0,1,1,1.0973878044442245,10,"[[(9.06, 8.94), (31.16, 10.84), (22.0, 7.81), (14.36, 28.36), (11.58, 17.58), (2.0, 21.0), (11.0, 24.78), (7.93, 27.0), (24.3, 28.0), (6.67, 31.0)], [(8.95, 9.05), (31.06, 10.94), (22.0, 7.67), (14.47, 28.47), (11.48, 17.48), (2.15, 21.0), (11.0, 24.93), (8.07, 27.0), (24.44, 28.0), (6.52, 31.0)], [(8.85, 9.15), (30.95, 11.05), (22.0, 7.52), (14.57, 28.57), (11.37, 17.37), (2.3, 21.0), (11.0, 25.07), (8.22, 27.0), (24.59, 28.0), (6.37, 31.0)], [(8.74, 9.26), (30.85, 11.15), (22.0, 7.37), (14.68, 28.68), (11.27, 17.27), (2.44, 21.0), (11.0, 25.22), (8.37, 27.0), (24.74, 28.0), (6.22, 31.0)], [(8.64, 9.36), (30.74, 11.26), (22.0, 7.22), (14.78, 28.78), (11.16, 17.16), (2.59, 21.0), (11.0, 25.37), (8.52, 27.0), (24.89, 28.0), (6.07, 31.0)], [(8.53, 9.47), (30.64, 11.36), (22.0, 7.07), (14.89, 28.89), (11.06, 17.06), (2.74, 21.0), (11.0, 25.52), (8.67, 27.0), (25.04, 28.0), (5.93, 31.0)], [(8.43, 9.57), (30.53, 11.47), (22.0, 6.93), (14.99, 28.99), (10.95, 16.95), (2.89, 21.0), (11.0, 25.67), (8.81, 27.0), (25.19, 28.0), (5.78, 31.0)], [(8.32, 9.68), (30.43, 11.57), (22.0, 6.78), (15.1, 29.1), (10.85, 16.85), (3.04, 21.0), (11.0, 25.81), (8.96, 27.0), (25.33, 28.0), (5.63, 31.0)], [(8.22, 9.78), (30.32, 11.68), (22.0, 6.63), (15.2, 29.2), (10.74, 16.74), (3.19, 21.0), (11.0, 25.96), (9.11, 27.0), (25.48, 28.0), (5.48, 31.0)], [(8.11, 9.89), (30.22, 11.78), (22.0, 6.48), (15.31, 29.31), (10.64, 16.64), (3.33, 21.0), (11.0, 26.11), (9.26, 27.0), (25.63, 28.0), (5.33, 31.0)], [(8.01, 9.99), (30.11, 11.89), (22.0, 6.33), (15.41, 29.41), (10.53, 16.53), (3.48, 21.0), (11.0, 26.26), (9.41, 27.0), (25.78, 28.0), (5.19, 31.0)], [(7.9, 10.1), (30.01, 11.99), (22.0, 6.19), (15.52, 29.52), (10.43, 16.43), (3.63, 21.0), (11.0, 26.41), (9.56, 27.0), (25.93, 28.0), (5.04, 31.0)], [(7.8, 10.2), (29.9, 12.1), (22.0, 6.04), (15.62, 29.62), (10.32, 16.32), (3.78, 21.0), (11.0, 26.56), (9.7, 27.0), (26.07, 28.0), (4.89, 31.0)], [(7.69, 10.31), (29.8, 12.2), (22.0, 5.89), (15.73, 29.73), (10.22, 16.22), (3.93, 21.0), (11.0, 26.7), (9.85, 27.0), (26.22, 28.0), (4.74, 31.0)], [(7.59, 10.41), (29.69, 12.31), (22.0, 5.74), (15.83, 29.83), (10.11, 16.11), (4.07, 21.0), (11.0, 26.85), (10.0, 27.0), (26.37, 28.0), (4.59, 31.0)], [(7.48, 10.52), (29.59, 12.41), (22.0, 5.59), (15.73, 29.93), (10.01, 16.01), (4.22, 21.0), (11.0, 27.0), (10.1, 26.9), (26.52, 28.0), (4.44, 31.0)], [(7.38, 10.62), (29.48, 12.52), (22.0, 5.44), (15.62, 30.04), (9.9, 15.9), (4.37, 21.0), (10.9, 27.1), (10.21, 26.79), (26.67, 28.0), (4.3, 31.0)], [(7.27, 10.73), (29.38, 12.62), (22.0, 5.3), (15.52, 30.14), (9.8, 15.8), (4.52, 21.0), (10.79, 27.21), (10.31, 26.69), (26.81, 28.0), (4.15, 31.0)], [(7.17, 10.83), (29.27, 12.73), (22.0, 5.15), (15.41, 30.25), (9.69, 15.69), (4.67, 21.0), (10.69, 27.31), (10.42, 26.58), (26.96, 28.0), (4.0, 31.0)], [(7.32, 10.83), (29.17, 12.83), (22.0, 5.0), (15.31, 30.35), (9.59, 15.59), (4.81, 21.0), (10.58, 27.42), (10.52, 26.48), (27.11, 28.0), (4.0, 30.85)]]","[(2.0, 21.0), (2.15, 21.0), (2.3, 21.0), (2.44, 21.0), (2.59, 21.0), (2.74, 21.0), (2.89, 21.0), (3.04, 21.0), (3.19, 21.0), (3.33, 21.0), (3.48, 21.0), (3.63, 21.0), (3.78, 21.0), (3.93, 21.0), (4.07, 21.0), (4.22, 21.0), (4.37, 21.0), (4.52, 21.0), (4.67, 21.0), (4.81, 21.0)]",86.4,,,1.292
dynamic task,kh8_dt2,4,1,0,1,1,1.1052939377777875,10,"[[(20.58, 3.42), (11.59, 29.0), (11.06, 9.06), (13.26, 20.26), (8.36, 26.64), (30.0, 8.22), (18.31, 2.31), (5.63, 29.0), (27.0, 24.0), (10.1, 29.9)], [(20.48, 3.52), (11.74, 29.0), (10.95, 8.95), (13.36, 20.36), (8.47, 26.53), (30.0, 8.07), (18.42, 2.42), (5.78, 29.0), (27.15, 24.0), (10.21, 29.79)], [(20.37, 3.63), (11.89, 29.0), (10.85, 8.85), (13.47, 20.47), (8.57, 26.43), (30.0, 7.93), (18.52, 2.52), (5.93, 29.0), (27.3, 24.0), (10.31, 29.69)], [(20.27, 3.73), (12.04, 29.0), (10.74, 8.74), (13.57, 20.57), (8.68, 26.32), (30.0, 7.78), (18.63, 2.63), (6.07, 29.0), (27.44, 24.0), (10.42, 29.58)], [(20.16, 3.84), (12.19, 29.0), (10.64, 8.64), (13.68, 20.68), (8.78, 26.22), (30.0, 7.63), (18.73, 2.73), (6.22, 29.0), (27.59, 24.0), (10.52, 29.48)], [(20.06, 3.94), (12.33, 29.0), (10.53, 8.53), (13.78, 20.78), (8.89, 26.11), (30.0, 7.48), (18.84, 2.84), (6.37, 29.0), (27.74, 24.0), (10.63, 29.37)], [(19.95, 4.05), (12.48, 29.0), (10.43, 8.43), (13.89, 20.89), (8.99, 26.01), (30.0, 7.33), (18.94, 2.94), (6.52, 29.0), (27.89, 24.0), (10.73, 29.27)], [(19.85, 4.15), (12.63, 29.0), (10.32, 8.32), (13.99, 20.99), (9.1, 25.9), (30.0, 7.19), (19.05, 3.05), (6.67, 29.0), (28.04, 24.0), (10.84, 29.16)], [(19.74, 4.26), (12.78, 29.0), (10.22, 8.22), (14.1, 21.1), (9.2, 25.8), (30.0, 7.04), (19.15, 3.15), (6.81, 29.0), (28.19, 24.0), (10.94, 29.06)], [(19.64, 4.36), (12.93, 29.0), (10.11, 8.11), (14.2, 21.2), (9.31, 25.69), (30.0, 6.89), (19.26, 3.26), (6.96, 29.0), (28.33, 24.0), (11.05, 28.95)], [(19.53, 4.47), (13.07, 29.0), (10.01, 8.01), (14.31, 21.31), (9.41, 25.59), (30.0, 6.74), (19.36, 3.36), (7.11, 29.0), (28.48, 24.0), (11.15, 28.85)], [(19.43, 4.57), (13.22, 29.0), (9.9, 7.9), (14.41, 21.41), (9.52, 25.48), (30.0, 6.59), (19.47, 3.47), (7.26, 29.0), (28.63, 24.0), (11.26, 28.74)], [(19.32, 4.68), (13.37, 29.0), (9.8, 7.8), (14.52, 21.52), (9.62, 25.38), (30.0, 6.44), (19.57, 3.57), (7.41, 29.0), (28.78, 24.0), (11.36, 28.64)], [(19.22, 4.78), (13.52, 29.0), (9.69, 7.69), (14.62, 21.62), (9.73, 25.27), (30.0, 6.3), (19.68, 3.68), (7.56, 29.0), (28.93, 24.0), (11.47, 28.53)], [(19.11, 4.89), (13.67, 29.0), (9.59, 7.59), (14.73, 21.73), (9.83, 25.17), (30.0, 6.15), (19.78, 3.78), (7.7, 29.0), (29.07, 24.0), (11.57, 28.43)], [(19.01, 4.99), (13.81, 29.0), (9.48, 7.48), (14.83, 21.83), (9.93, 25.07), (30.0, 6.0), (19.89, 3.89), (7.85, 29.0), (29.22, 24.0), (11.68, 28.32)], [(18.9, 5.1), (13.96, 29.0), (9.38, 7.38), (14.73, 21.93), (10.04, 24.96), (29.9, 6.1), (19.99, 3.99), (8.0, 29.0), (29.37, 24.0), (11.78, 28.22)], [(18.8, 5.2), (14.11, 29.0), (9.27, 7.27), (14.62, 22.04), (10.14, 24.86), (29.79, 6.21), (20.1, 4.1), (8.1, 28.9), (29.52, 24.0), (11.89, 28.11)], [(18.69, 5.31), (14.26, 29.0), (9.17, 7.17), (14.52, 22.14), (10.25, 24.75), (29.69, 6.31), (20.2, 4.2), (8.21, 28.79), (29.67, 24.0), (11.99, 28.01)], [(18.59, 5.41), (14.41, 29.0), (9.32, 7.17), (14.41, 22.25), (10.35, 24.65), (29.58, 6.42), (20.31, 4.31), (8.31, 28.69), (29.81, 24.0), (12.1, 27.9)]]","[(8.36, 26.64), (8.47, 26.53), (8.57, 26.43), (8.68, 26.32), (8.78, 26.22), (8.89, 26.11), (8.99, 26.01), (9.1, 25.9), (9.2, 25.8), (9.31, 25.69), (9.41, 25.59), (9.52, 25.48), (9.62, 25.38), (9.73, 25.27), (9.83, 25.17), (9.93, 25.07), (10.04, 24.96), (10.14, 24.86), (10.25, 24.75), (10.35, 24.65)]",86.03,,,1.574
dynamic task,kh8_dt2,5,0,0,0,1,1.7656550399997286,10,"[[(2.0, 10.0), (24.07, 21.0), (15.44, 11.0), (20.69, 13.31), (12.73, 26.27), (7.69, 29.31), (13.44, 31.0), (3.52, 15.48), (7.26, 26.74), (23.0, 32.0)], [(2.1, 9.9), (23.93, 21.0), (15.59, 11.0), (20.58, 13.42), (12.84, 26.16), (7.58, 29.42), (13.59, 31.0), (3.63, 15.37), (7.36, 26.64), (22.85, 32.0)], [(2.21, 9.79), (23.78, 21.0), (15.74, 11.0), (20.48, 13.52), (12.94, 26.06), (7.48, 29.52), (13.74, 31.0), (3.73, 15.27), (7.47, 26.53), (22.7, 32.0)], [(2.31, 9.69), (23.63, 21.0), (15.89, 11.0), (20.37, 13.63), (13.05, 25.95), (7.37, 29.63), (13.89, 31.0), (3.84, 15.16), (7.57, 26.43), (22.56, 32.0)], [(2.42, 9.58), (23.48, 21.0), (16.04, 11.0), (20.27, 13.73), (13.15, 25.85), (7.27, 29.73), (14.04, 31.0), (3.94, 15.06), (7.68, 26.32), (22.41, 32.0)], [(2.52, 9.48), (23.33, 21.0), (16.19, 11.0), (20.16, 13.84), (13.26, 25.74), (7.16, 29.84), (14.19, 31.0), (4.05, 14.95), (7.78, 26.22), (22.26, 32.0)], [(2.63, 9.37), (23.19, 21.0), (16.33, 11.0), (20.06, 13.94), (13.36, 25.64), (7.06, 29.94), (14.33, 31.0), (4.15, 14.85), (7.89, 26.11), (22.11, 32.0)], [(2.73, 9.27), (23.04, 21.0), (16.48, 11.0), (19.95, 14.05), (13.47, 25.53), (6.95, 30.05), (14.48, 31.0), (4.26, 14.74), (7.99, 26.01), (21.96, 32.0)], [(2.84, 9.16), (22.89, 21.0), (16.63, 11.0), (19.85, 14.15), (13.57, 25.43), (6.85, 30.15), (14.63, 31.0), (4.36, 14.64), (8.1, 25.9), (21.81, 32.0)], [(2.94, 9.06), (22.74, 21.0), (16.78, 11.0), (19.74, 14.26), (13.68, 25.32), (6.74, 30.26), (14.78, 31.0), (4.47, 14.53), (8.2, 25.8), (21.67, 32.0)], [(3.05, 8.95), (22.59, 21.0), (16.93, 11.0), (19.64, 14.36), (13.78, 25.22), (6.64, 30.36), (14.93, 31.0), (4.57, 14.43), (8.31, 25.69), (21.52, 32.0)], [(3.15, 8.85), (22.44, 21.0), (17.07, 11.0), (19.53, 14.47), (13.89, 25.11), (6.53, 30.47), (15.07, 31.0), (4.68, 14.32), (8.41, 25.59), (21.37, 32.0)], [(3.26, 8.74), (22.3, 21.0), (17.22, 11.0), (19.43, 14.57), (13.99, 25.01), (6.43, 30.57), (15.22, 31.0), (4.78, 14.22), (8.52, 25.48), (21.22, 32.0)], [(3.36, 8.64), (22.15, 21.0), (17.37, 11.0), (19.32, 14.68), (14.1, 24.9), (6.32, 30.68), (15.37, 31.0), (4.89, 14.11), (8.62, 25.38), (21.07, 32.0)], [(3.47, 8.53), (22.0, 21.0), (17.52, 11.0), (19.22, 14.78), (14.2, 24.8), (6.22, 30.78), (15.52, 31.0), (4.99, 14.01), (8.73, 25.27), (20.93, 32.0)], [(3.57, 8.43), (21.85, 21.0), (17.67, 11.0), (19.11, 14.89), (14.31, 24.69), (6.11, 30.89), (15.67, 31.0), (5.1, 13.9), (8.83, 25.17), (20.78, 32.0)], [(3.68, 8.32), (21.7, 21.0), (17.81, 11.0), (19.01, 14.99), (14.41, 24.59), (6.01, 30.99), (15.81, 31.0), (5.2, 13.8), (8.93, 25.27), (20.63, 32.0)], [(3.78, 8.22), (21.56, 21.0), (17.96, 11.0), (18.9, 15.1), (14.52, 24.48), (5.9, 31.1), (15.96, 31.0), (5.31, 13.69), (9.04, 25.38), (20.48, 32.0)], [(3.89, 8.11), (21.41, 21.0), (18.11, 11.0), (18.8, 15.2), (14.62, 24.38), (5.8, 31.2), (16.11, 31.0), (5.41, 13.59), (9.14, 25.48), (20.33, 32.0)], [(3.99, 8.01), (21.26, 21.0), (18.26, 11.0), (18.69, 15.31), (14.73, 24.27), (5.69, 31.31), (16.26, 31.0), (5.52, 13.48), (9.25, 25.59), (20.19, 32.0)], [(4.1, 7.9), (21.11, 21.0), (18.41, 11.0), (18.59, 15.41), (14.83, 24.17), (5.59, 31.41), (16.41, 31.0), (5.62, 13.38), (9.35, 25.69), (20.04, 32.0)], [(4.2, 7.8), (20.96, 21.0), (18.56, 11.0), (18.48, 15.52), (14.73, 24.07), (5.48, 31.52), (16.56, 31.0), (5.73, 13.27), (9.46, 25.8), (19.89, 32.0)], [(4.31, 7.69), (20.81, 21.0), (18.7, 11.0), (18.38, 15.62), (14.62, 23.96), (5.38, 31.62), (16.7, 31.0), (5.83, 13.17), (9.56, 25.9), (19.74, 32.0)], [(4.41, 7.59), (20.67, 21.0), (18.85, 11.0), (18.27, 15.73), (14.52, 23.86), (5.27, 31.73), (16.85, 31.0), (5.73, 13.07), (9.67, 26.01), (19.59, 32.0)], [(4.52, 7.48), (20.52, 21.0), (19.0, 11.0), (18.17, 15.83), (14.41, 23.75), (5.17, 31.83), (17.0, 31.0), (5.62, 12.96), (9.77, 26.11), (19.44, 32.0)], [(4.62, 7.38), (20.37, 21.0), (18.9, 11.1), (18.27, 15.93), (14.31, 23.65), (5.07, 31.73), (17.1, 30.9), (5.52, 12.86), (9.88, 26.22), (19.3, 32.0)], [(4.73, 7.27), (20.22, 21.0), (18.79, 11.21), (18.38, 16.04), (14.2, 23.54), (4.96, 31.62), (17.21, 30.79), (5.41, 12.75), (9.98, 26.32), (19.15, 32.0)], [(4.83, 7.17), (20.07, 21.0), (18.69, 11.31), (18.48, 16.14), (14.1, 23.44), (4.86, 31.52), (17.31, 30.69), (5.31, 12.65), (10.09, 26.43), (19.0, 32.0)], [(4.93, 7.27), (19.93, 21.0), (18.58, 11.42), (18.59, 16.25), (13.99, 23.33), (4.75, 31.41), (17.42, 30.58), (5.2, 12.54), (10.19, 26.53), (19.0, 31.85)], [(5.04, 7.38), (19.78, 21.0), (18.48, 11.52), (18.69, 16.35), (13.89, 23.23), (4.65, 31.31), (17.52, 30.48), (5.1, 12.44), (10.3, 26.64), (19.0, 31.7)], [(5.14, 7.48), (19.63, 21.0), (18.37, 11.63), (18.8, 16.46), (13.78, 23.12), (4.54, 31.2), (17.63, 30.37), (4.99, 12.33), (10.4, 26.74), (19.0, 31.56)], [(5.25, 7.59), (19.48, 21.0), (18.27, 11.73), (18.9, 16.56), (13.68, 23.02), (4.44, 31.1), (17.73, 30.27), (4.89, 12.23), (10.51, 26.85), (19.0, 31.41)], [(5.35, 7.69), (19.33, 21.0), (18.16, 11.84), (19.01, 16.67), (13.57, 22.91), (4.33, 30.99), (17.84, 30.16), (4.78, 12.12), (10.61, 26.95), (19.0, 31.26)], [(5.46, 7.8), (19.19, 21.0), (18.06, 11.94), (19.11, 16.77), (13.47, 22.81), (4.23, 30.89), (17.94, 30.06), (4.68, 12.02), (10.72, 27.06), (19.0, 31.11)]]",,0.0,,,0.845
dynamic task,kh8_dt2,6,1,0,1,1,0.7883542755557755,10,"[[(14.0, 16.11), (17.07, 2.0), (7.78, 13.0), (9.1, 27.9), (20.1, 8.1), (15.0, 3.15), (20.1, 8.1), (32.0, 14.44), (5.26, 3.74), (5.19, 17.0)], [(14.0, 15.96), (16.93, 2.0), (7.93, 13.0), (9.21, 27.79), (20.21, 8.21), (15.0, 3.3), (20.21, 8.21), (32.0, 14.59), (5.36, 3.64), (5.33, 17.0)], [(14.0, 15.81), (16.78, 2.0), (8.07, 13.0), (9.31, 27.69), (20.31, 8.31), (15.0, 3.44), (20.31, 8.31), (32.0, 14.74), (5.47, 3.53), (5.48, 17.0)], [(14.0, 15.67), (16.63, 2.0), (8.22, 13.0), (9.42, 27.58), (20.42, 8.42), (15.0, 3.59), (20.42, 8.42), (32.0, 14.89), (5.57, 3.43), (5.63, 17.0)], [(14.0, 15.52), (16.48, 2.0), (8.37, 13.0), (9.52, 27.48), (20.52, 8.52), (15.0, 3.74), (20.52, 8.52), (32.0, 15.04), (5.68, 3.32), (5.78, 17.0)], [(14.0, 15.37), (16.33, 2.0), (8.52, 13.0), (9.63, 27.37), (20.63, 8.63), (15.0, 3.89), (20.63, 8.63), (32.0, 15.19), (5.78, 3.22), (5.93, 17.0)], [(14.0, 15.22), (16.19, 2.0), (8.67, 13.0), (9.73, 27.27), (20.73, 8.73), (15.0, 4.04), (20.73, 8.73), (32.0, 15.33), (5.89, 3.11), (6.07, 17.0)], [(14.0, 15.07), (16.04, 2.0), (8.81, 13.0), (9.84, 27.16), (20.84, 8.84), (15.0, 4.19), (20.84, 8.84), (32.0, 15.48), (5.99, 3.01), (6.22, 17.0)], [(14.0, 14.93), (15.89, 2.0), (8.96, 13.0), (9.94, 27.06), (20.94, 8.94), (15.0, 4.33), (20.94, 8.94), (32.0, 15.63), (6.1, 2.9), (6.37, 17.0)], [(14.0, 14.78), (15.74, 2.0), (9.11, 13.0), (10.05, 26.95), (21.05, 9.05), (15.0, 4.48), (21.05, 9.05), (32.0, 15.78), (6.2, 2.8), (6.52, 17.0)], [(14.0, 14.63), (15.59, 2.0), (9.26, 13.0), (10.15, 26.85), (21.15, 9.15), (15.0, 4.63), (21.15, 9.15), (32.0, 15.93), (6.31, 2.69), (6.67, 17.0)], [(14.0, 14.48), (15.44, 2.0), (9.41, 13.0), (10.26, 26.74), (21.26, 9.26), (15.0, 4.78), (21.26, 9.26), (32.0, 16.07), (6.41, 2.59), (6.81, 17.0)], [(14.0, 14.33), (15.3, 2.0), (9.56, 13.0), (10.36, 26.64), (21.36, 9.36), (15.0, 4.93), (21.36, 9.36), (32.0, 16.22), (6.52, 2.48), (6.96, 17.0)]]","[(14.0, 16.11), (14.0, 15.96), (14.0, 15.81), (14.0, 15.67), (14.0, 15.52), (14.0, 15.37), (14.0, 15.22), (14.0, 15.07), (14.0, 14.93), (14.0, 14.78), (14.0, 14.63), (14.0, 14.48), (14.0, 14.33)]",74.71,,,1.231
dynamic task,kh8_dt2,7,1,0,1,1,0.7837860977779201,10,"[[(26.41, 2.0), (17.95, 6.05), (32.0, 15.0), (19.0, 31.41), (9.22, 17.0), (9.05, 22.95), (3.05, 28.05), (26.07, 19.0), (7.95, 28.95), (17.85, 29.85)], [(26.26, 2.0), (17.85, 6.15), (31.9, 15.1), (19.0, 31.26), (9.07, 17.0), (9.15, 22.85), (3.15, 28.15), (25.93, 19.0), (7.85, 28.85), (17.74, 29.74)], [(26.11, 2.0), (17.74, 6.26), (31.79, 15.21), (19.0, 31.11), (8.93, 17.0), (9.26, 22.74), (3.26, 28.26), (25.78, 19.0), (7.74, 28.74), (17.64, 29.64)], [(25.96, 2.0), (17.64, 6.36), (31.69, 15.31), (19.0, 30.96), (8.78, 17.0), (9.36, 22.64), (3.36, 28.36), (25.63, 19.0), (7.64, 28.64), (17.53, 29.53)], [(25.81, 2.0), (17.53, 6.47), (31.58, 15.42), (19.0, 30.81), (8.63, 17.0), (9.47, 22.53), (3.47, 28.47), (25.48, 19.0), (7.53, 28.53), (17.43, 29.43)], [(25.67, 2.0), (17.43, 6.57), (31.48, 15.52), (19.0, 30.67), (8.48, 17.0), (9.57, 22.43), (3.57, 28.57), (25.33, 19.0), (7.43, 28.43), (17.32, 29.32)], [(25.52, 2.0), (17.32, 6.68), (31.37, 15.63), (19.0, 30.52), (8.33, 17.0), (9.68, 22.32), (3.68, 28.68), (25.19, 19.0), (7.32, 28.32), (17.22, 29.22)], [(25.37, 2.0), (17.22, 6.78), (31.27, 15.73), (19.0, 30.37), (8.19, 17.0), (9.78, 22.22), (3.78, 28.78), (25.04, 19.0), (7.22, 28.22), (17.11, 29.11)], [(25.22, 2.0), (17.11, 6.89), (31.16, 15.84), (19.0, 30.22), (8.04, 17.0), (9.89, 22.11), (3.89, 28.89), (24.89, 19.0), (7.11, 28.11), (17.01, 29.01)], [(25.07, 2.0), (17.01, 6.99), (31.06, 15.94), (19.0, 30.07), (7.89, 17.0), (9.99, 22.01), (3.99, 28.99), (24.74, 19.0), (7.01, 28.01), (16.9, 28.9)], [(24.93, 2.0), (16.9, 7.1), (30.95, 16.05), (19.0, 29.93), (7.74, 17.0), (10.1, 21.9), (4.1, 29.1), (24.59, 19.0), (6.9, 27.9), (16.8, 28.8)], [(24.78, 2.0), (16.8, 7.2), (30.85, 16.15), (19.0, 29.78), (7.59, 17.0), (10.2, 21.8), (4.2, 29.2), (24.44, 19.0), (6.8, 27.8), (16.69, 28.69)], [(24.63, 2.0), (16.69, 7.31), (30.74, 16.26), (19.0, 29.63), (7.44, 17.0), (10.31, 21.69), (4.31, 29.31), (24.3, 19.0), (6.69, 27.69), (16.59, 28.59)]]","[(26.07, 19.0), (25.93, 19.0), (25.78, 19.0), (25.63, 19.0), (25.48, 19.0), (25.33, 19.0), (25.19, 19.0), (25.04, 19.0), (24.89, 19.0), (24.74, 19.0), (24.59, 19.0), (24.44, 19.0), (24.3, 19.0)]",75.95,,,0.814
dynamic task,kh8_dt2,8,0,0,0,1,1.042624284444173,10,"[[(21.26, 26.0), (19.78, 10.0), (2.0, 24.59), (30.41, 7.0), (19.74, 8.26), (15.0, 15.59), (10.0, 11.56), (15.19, 3.0), (26.0, 26.63), (23.15, 6.15)], [(21.11, 26.0), (19.93, 10.0), (2.0, 24.74), (30.26, 7.0), (19.64, 8.36), (15.0, 15.74), (10.0, 11.41), (15.33, 3.0), (26.0, 26.78), (23.26, 6.26)], [(20.96, 26.0), (20.07, 10.0), (2.0, 24.89), (30.11, 7.0), (19.53, 8.47), (15.0, 15.89), (10.0, 11.26), (15.48, 3.0), (26.0, 26.93), (23.36, 6.36)], [(20.81, 26.0), (20.22, 10.0), (2.0, 25.04), (29.96, 7.0), (19.43, 8.57), (15.0, 16.04), (10.0, 11.11), (15.63, 3.0), (26.0, 27.07), (23.47, 6.47)], [(20.67, 26.0), (20.37, 10.0), (2.0, 25.19), (29.81, 7.0), (19.32, 8.68), (15.0, 16.19), (10.0, 10.96), (15.78, 3.0), (26.0, 27.22), (23.57, 6.57)], [(20.52, 26.0), (20.52, 10.0), (2.0, 25.33), (29.67, 7.0), (19.22, 8.78), (15.0, 16.33), (10.0, 10.81), (15.93, 3.0), (26.0, 27.37), (23.68, 6.68)], [(20.37, 26.0), (20.67, 10.0), (2.0, 25.48), (29.52, 7.0), (19.11, 8.89), (15.0, 16.48), (10.0, 10.67), (16.07, 3.0), (26.0, 27.52), (23.78, 6.78)], [(20.22, 26.0), (20.81, 10.0), (2.0, 25.63), (29.37, 7.0), (19.01, 8.99), (15.0, 16.63), (10.0, 10.52), (16.22, 3.0), (26.0, 27.67), (23.89, 6.89)], [(20.07, 26.0), (20.96, 10.0), (2.0, 25.78), (29.22, 7.0), (18.9, 9.1), (15.0, 16.78), (10.0, 10.37), (16.37, 3.0), (26.0, 27.81), (23.99, 6.99)], [(19.93, 26.0), (21.11, 10.0), (2.0, 25.93), (29.07, 7.0), (18.8, 9.2), (15.0, 16.93), (10.0, 10.22), (16.52, 3.0), (26.0, 27.96), (24.1, 7.1)], [(19.78, 26.0), (21.26, 10.0), (2.0, 26.07), (28.93, 7.0), (18.69, 9.31), (15.0, 17.07), (10.0, 10.07), (16.67, 3.0), (26.0, 28.11), (24.2, 7.2)], [(19.63, 26.0), (21.41, 10.0), (2.0, 26.22), (28.78, 7.0), (18.59, 9.41), (15.0, 17.22), (10.0, 9.93), (16.81, 3.0), (26.0, 28.26), (24.31, 7.31)], [(19.48, 26.0), (21.56, 10.0), (2.0, 26.37), (28.63, 7.0), (18.48, 9.52), (15.0, 17.37), (10.0, 9.78), (16.96, 3.0), (26.0, 28.41), (24.41, 7.41)], [(19.33, 26.0), (21.7, 10.0), (2.0, 26.52), (28.48, 7.0), (18.38, 9.62), (15.0, 17.52), (10.0, 9.63), (17.11, 3.0), (26.0, 28.56), (24.52, 7.52)], [(19.19, 26.0), (21.85, 10.0), (2.0, 26.67), (28.33, 7.0), (18.27, 9.73), (15.0, 17.67), (10.0, 9.48), (17.26, 3.0), (26.0, 28.7), (24.62, 7.62)], [(19.04, 26.0), (22.0, 10.0), (2.0, 26.81), (28.19, 7.0), (18.17, 9.83), (15.0, 17.81), (10.0, 9.33), (17.41, 3.0), (26.0, 28.85), (24.73, 7.73)], [(18.89, 26.0), (22.0, 9.85), (2.0, 26.96), (28.04, 7.0), (18.17, 9.68), (15.0, 17.96), (10.0, 9.19), (17.56, 3.0), (26.0, 29.0), (24.83, 7.83)], [(18.74, 26.0), (22.0, 9.7), (2.0, 27.11), (27.89, 7.0), (18.17, 9.53), (15.0, 18.11), (10.0, 9.04), (17.7, 3.0), (25.9, 28.9), (24.98, 7.83)], [(18.59, 26.0), (22.0, 9.56), (2.0, 27.26), (27.74, 7.0), (18.17, 9.39), (15.0, 18.26), (10.0, 8.89), (17.85, 3.0), (25.79, 28.79), (25.13, 7.83)]]",,0.0,,,0.65
dynamic task,kh8_dt2,9,0,0,0,1,1.1230768355553664,10,"[[(30.63, 30.37), (26.73, 4.73), (5.05, 30.95), (19.9, 30.9), (17.42, 8.42), (13.0, 12.0), (21.48, 24.52), (16.21, 18.79), (16.27, 12.73), (29.0, 17.56)], [(30.73, 30.27), (26.84, 4.84), (5.15, 30.85), (19.79, 30.79), (17.52, 8.52), (12.85, 12.0), (21.37, 24.63), (16.31, 18.69), (16.16, 12.84), (29.0, 17.41)], [(30.84, 30.16), (26.94, 4.94), (5.26, 30.74), (19.69, 30.69), (17.63, 8.63), (12.7, 12.0), (21.27, 24.73), (16.42, 18.58), (16.06, 12.94), (29.0, 17.26)], [(30.94, 30.06), (27.05, 5.05), (5.36, 30.64), (19.58, 30.58), (17.73, 8.73), (12.56, 12.0), (21.16, 24.84), (16.52, 18.48), (15.95, 13.05), (29.0, 17.11)], [(31.05, 29.95), (27.15, 5.15), (5.47, 30.53), (19.48, 30.48), (17.84, 8.84), (12.41, 12.0), (21.06, 24.94), (16.63, 18.37), (15.85, 13.15), (29.0, 16.96)], [(31.15, 29.85), (27.26, 5.26), (5.57, 30.43), (19.37, 30.37), (17.94, 8.94), (12.26, 12.0), (20.95, 25.05), (16.73, 18.27), (15.74, 13.26), (29.0, 16.81)], [(31.26, 29.74), (27.36, 5.36), (5.68, 30.32), (19.27, 30.27), (18.05, 9.05), (12.11, 12.0), (20.85, 25.15), (16.84, 18.16), (15.64, 13.36), (29.0, 16.67)], [(31.36, 29.64), (27.47, 5.47), (5.78, 30.22), (19.16, 30.16), (18.15, 9.15), (11.96, 12.0), (20.74, 25.26), (16.94, 18.06), (15.53, 13.47), (29.0, 16.52)], [(31.47, 29.53), (27.57, 5.57), (5.89, 30.11), (19.06, 30.06), (18.26, 9.26), (11.81, 12.0), (20.64, 25.36), (17.05, 17.95), (15.43, 13.57), (29.0, 16.37)], [(31.57, 29.43), (27.68, 5.68), (5.99, 30.01), (18.95, 29.95), (18.36, 9.36), (11.67, 12.0), (20.53, 25.47), (17.15, 17.85), (15.32, 13.68), (29.0, 16.22)], [(31.68, 29.32), (27.78, 5.78), (6.1, 29.9), (18.85, 29.85), (18.47, 9.47), (11.52, 12.0), (20.43, 25.57), (17.26, 17.74), (15.22, 13.78), (29.0, 16.07)], [(31.78, 29.22), (27.89, 5.89), (6.2, 29.8), (18.74, 29.74), (18.57, 9.57), (11.37, 12.0), (20.32, 25.68), (17.36, 17.64), (15.11, 13.89), (29.0, 15.93)], [(31.89, 29.11), (27.99, 5.99), (6.31, 29.69), (18.64, 29.64), (18.68, 9.68), (11.22, 12.0), (20.22, 25.78), (17.47, 17.53), (15.01, 13.99), (29.0, 15.78)], [(31.99, 29.01), (28.1, 6.1), (6.41, 29.59), (18.53, 29.53), (18.78, 9.78), (11.07, 12.0), (20.11, 25.89), (17.57, 17.43), (14.9, 14.1), (29.0, 15.63)], [(32.1, 28.9), (28.2, 6.2), (6.52, 29.48), (18.43, 29.43), (18.89, 9.89), (10.93, 12.0), (20.01, 25.99), (17.68, 17.32), (14.8, 14.2), (29.0, 15.48)], [(32.2, 28.8), (28.31, 6.31), (6.62, 29.38), (18.32, 29.32), (18.99, 9.99), (10.78, 12.0), (19.9, 26.1), (17.78, 17.22), (14.69, 14.31), (29.0, 15.33)], [(32.31, 28.69), (28.41, 6.41), (6.73, 29.27), (18.22, 29.22), (19.1, 10.1), (10.63, 12.0), (19.8, 26.2), (17.89, 17.11), (14.59, 14.41), (29.0, 15.19)], [(32.41, 28.59), (28.52, 6.52), (6.83, 29.17), (18.11, 29.11), (19.2, 10.2), (10.48, 12.0), (19.69, 26.31), (17.99, 17.01), (14.48, 14.52), (29.0, 15.04)], [(32.52, 28.48), (28.62, 6.62), (6.93, 29.27), (18.01, 29.01), (19.31, 10.31), (10.33, 12.0), (19.59, 26.41), (18.1, 16.9), (14.38, 14.62), (29.0, 14.89)], [(32.62, 28.38), (28.73, 6.73), (7.04, 29.38), (17.9, 28.9), (19.41, 10.41), (10.19, 12.0), (19.48, 26.52), (18.2, 16.8), (14.27, 14.73), (29.0, 14.74)]]",,0.0,,,0.48
dynamic task,kh8_dt2,10,0,0,0,1,0.9671637333335639,10,"[[(31.36, 7.64), (7.58, 6.58), (32.0, 29.0), (14.33, 31.0), (16.42, 14.58), (4.36, 29.36), (12.0, 29.93), (31.0, 18.19), (19.0, 17.7), (14.0, 5.48)], [(31.47, 7.53), (7.48, 6.48), (31.85, 29.0), (14.48, 31.0), (16.52, 14.48), (4.47, 29.47), (12.0, 30.07), (31.0, 18.33), (19.0, 17.56), (14.0, 5.63)], [(31.57, 7.43), (7.37, 6.37), (31.7, 29.0), (14.63, 31.0), (16.63, 14.37), (4.57, 29.57), (12.0, 30.22), (31.0, 18.48), (19.0, 17.41), (14.0, 5.78)], [(31.68, 7.32), (7.27, 6.27), (31.56, 29.0), (14.78, 31.0), (16.73, 14.27), (4.68, 29.68), (12.0, 30.37), (31.0, 18.63), (19.0, 17.26), (14.0, 5.93)], [(31.78, 7.22), (7.16, 6.16), (31.41, 29.0), (14.93, 31.0), (16.84, 14.16), (4.78, 29.78), (12.0, 30.52), (31.0, 18.78), (19.0, 17.11), (14.0, 6.07)], [(31.89, 7.11), (7.06, 6.06), (31.26, 29.0), (15.07, 31.0), (16.94, 14.06), (4.89, 29.89), (12.0, 30.67), (31.0, 18.93), (19.0, 16.96), (14.0, 6.22)], [(31.99, 7.01), (6.95, 5.95), (31.11, 29.0), (15.22, 31.0), (17.05, 13.95), (4.99, 29.99), (12.0, 30.81), (31.0, 19.07), (19.0, 16.81), (14.0, 6.37)], [(32.1, 6.9), (6.85, 5.85), (30.96, 29.0), (15.37, 31.0), (17.15, 13.85), (5.1, 30.1), (12.0, 30.96), (31.0, 19.22), (19.0, 16.67), (14.0, 6.52)], [(32.2, 6.8), (6.74, 5.74), (30.81, 29.0), (15.52, 31.0), (17.26, 13.74), (5.2, 30.2), (12.0, 31.11), (31.0, 19.37), (19.0, 16.52), (14.0, 6.67)], [(32.31, 6.69), (6.64, 5.64), (30.67, 29.0), (15.67, 31.0), (17.36, 13.64), (5.31, 30.31), (12.0, 31.26), (31.0, 19.52), (19.0, 16.37), (14.0, 6.81)], [(32.41, 6.59), (6.53, 5.53), (30.52, 29.0), (15.81, 31.0), (17.47, 13.53), (5.41, 30.41), (12.0, 31.41), (31.0, 19.67), (19.0, 16.22), (14.0, 6.96)], [(32.52, 6.48), (6.43, 5.43), (30.37, 29.0), (15.96, 31.0), (17.57, 13.43), (5.52, 30.52), (12.0, 31.56), (31.0, 19.81), (19.0, 16.07), (14.0, 7.11)], [(32.62, 6.38), (6.32, 5.32), (30.22, 29.0), (16.11, 31.0), (17.68, 13.32), (5.62, 30.62), (12.0, 31.7), (31.0, 19.96), (19.0, 15.93), (14.0, 7.26)], [(32.73, 6.27), (6.22, 5.22), (30.07, 29.0), (16.26, 31.0), (17.78, 13.22), (5.73, 30.73), (12.0, 31.85), (31.0, 20.11), (19.0, 15.78), (14.0, 7.41)], [(32.83, 6.17), (6.11, 5.11), (29.93, 29.0), (16.41, 31.0), (17.89, 13.11), (5.83, 30.83), (12.0, 32.0), (31.0, 20.26), (19.0, 15.63), (14.0, 7.56)], [(32.73, 6.07), (6.01, 5.01), (29.78, 29.0), (16.56, 31.0), (17.99, 13.01), (5.83, 30.68), (12.1, 31.9), (31.0, 20.41), (19.0, 15.48), (14.0, 7.7)], [(32.62, 5.96), (5.9, 4.9), (29.63, 29.0), (16.7, 31.0), (18.1, 12.9), (5.83, 30.53), (12.21, 31.79), (31.0, 20.56), (19.0, 15.33), (14.0, 7.85)]]",,0.0,,,1.818
dynamic task,kh8_dt2,11,1,0,1,1,0.9603839999999764,10,"[[(21.37, 29.63), (15.36, 21.36), (10.06, 4.06), (18.15, 3.85), (15.04, 28.0), (12.59, 12.0), (11.0, 30.85), (23.9, 12.9), (20.78, 7.0), (12.0, 5.15)], [(21.27, 29.73), (15.47, 21.47), (9.95, 3.95), (18.26, 3.74), (15.19, 28.0), (12.74, 12.0), (11.0, 30.7), (23.79, 12.79), (20.93, 7.0), (12.0, 5.3)], [(21.16, 29.84), (15.57, 21.57), (9.85, 3.85), (18.36, 3.64), (15.33, 28.0), (12.89, 12.0), (11.0, 30.56), (23.69, 12.69), (21.07, 7.0), (12.0, 5.44)], [(21.06, 29.94), (15.68, 21.68), (9.74, 3.74), (18.47, 3.53), (15.48, 28.0), (13.04, 12.0), (11.0, 30.41), (23.58, 12.58), (21.22, 7.0), (12.0, 5.59)], [(20.95, 30.05), (15.78, 21.78), (9.64, 3.64), (18.57, 3.43), (15.63, 28.0), (13.19, 12.0), (11.0, 30.26), (23.48, 12.48), (21.37, 7.0), (12.0, 5.74)], [(20.85, 30.15), (15.89, 21.89), (9.53, 3.53), (18.68, 3.32), (15.78, 28.0), (13.33, 12.0), (11.0, 30.11), (23.37, 12.37), (21.52, 7.0), (12.0, 5.89)], [(20.74, 30.26), (15.99, 21.99), (9.43, 3.43), (18.78, 3.22), (15.93, 28.0), (13.48, 12.0), (11.0, 29.96), (23.27, 12.27), (21.67, 7.0), (12.0, 6.04)], [(20.64, 30.36), (16.1, 22.1), (9.32, 3.32), (18.89, 3.11), (16.07, 28.0), (13.63, 12.0), (11.0, 29.81), (23.16, 12.16), (21.81, 7.0), (12.0, 6.19)], [(20.53, 30.47), (16.2, 22.2), (9.22, 3.22), (18.99, 3.01), (16.22, 28.0), (13.78, 12.0), (11.0, 29.67), (23.06, 12.06), (21.96, 7.0), (12.0, 6.33)], [(20.43, 30.57), (16.31, 22.31), (9.11, 3.11), (19.1, 2.9), (16.37, 28.0), (13.93, 12.0), (11.0, 29.52), (22.95, 11.95), (22.11, 7.0), (12.0, 6.48)], [(20.32, 30.68), (16.41, 22.41), (9.01, 3.01), (19.2, 2.8), (16.52, 28.0), (14.07, 12.0), (11.0, 29.37), (22.85, 11.85), (22.26, 7.0), (12.0, 6.63)], [(20.22, 30.78), (16.52, 22.52), (8.9, 2.9), (19.31, 2.69), (16.67, 28.0), (14.22, 12.0), (11.0, 29.22), (22.74, 11.74), (22.41, 7.0), (12.0, 6.78)], [(20.11, 30.89), (16.62, 22.62), (8.8, 2.8), (19.41, 2.59), (16.81, 28.0), (14.37, 12.0), (11.0, 29.07), (22.64, 11.64), (22.56, 7.0), (12.0, 6.93)], [(20.01, 30.99), (16.73, 22.73), (8.69, 2.69), (19.52, 2.48), (16.96, 28.0), (14.52, 12.0), (11.0, 28.93), (22.53, 11.53), (22.7, 7.0), (12.0, 7.07)], [(19.9, 31.1), (16.83, 22.83), (8.59, 2.59), (19.62, 2.38), (17.11, 28.0), (14.67, 12.0), (11.0, 28.78), (22.43, 11.43), (22.85, 7.0), (12.0, 7.22)], [(19.8, 31.2), (16.68, 22.83), (8.48, 2.48), (19.73, 2.27), (17.26, 28.0), (14.81, 12.0), (11.0, 28.63), (22.32, 11.32), (23.0, 7.0), (12.0, 7.37)], [(19.69, 31.31), (16.53, 22.83), (8.38, 2.38), (19.83, 2.17), (17.41, 28.0), (14.96, 12.0), (11.0, 28.48), (22.22, 11.22), (22.9, 6.9), (12.0, 7.52)]]","[(20.78, 7.0), (20.93, 7.0), (21.07, 7.0), (21.22, 7.0), (21.37, 7.0), (21.52, 7.0), (21.67, 7.0), (21.81, 7.0), (21.96, 7.0), (22.11, 7.0), (22.26, 7.0), (22.41, 7.0), (22.56, 7.0), (22.7, 7.0), (22.85, 7.0), (23.0, 7.0), (22.9, 6.9)]",82.28,,,1.752
dynamic task,kh8_dt2,12,1,0,1,1,1.2659760355554681,10,"[[(20.26, 30.74), (29.0, 15.56), (21.07, 16.0), (17.0, 6.63), (21.0, 30.81), (2.0, 2.0), (2.0, 13.74), (10.73, 16.27), (8.74, 8.74), (3.74, 29.0)], [(20.36, 30.64), (29.0, 15.41), (20.93, 16.0), (17.0, 6.78), (21.0, 30.67), (2.0, 2.15), (2.0, 13.89), (10.84, 16.16), (8.64, 8.64), (3.89, 29.0)], [(20.47, 30.53), (29.0, 15.26), (20.78, 16.0), (17.0, 6.93), (21.0, 30.52), (2.0, 2.3), (2.0, 14.04), (10.94, 16.06), (8.53, 8.53), (4.04, 29.0)], [(20.57, 30.43), (29.0, 15.11), (20.63, 16.0), (17.0, 7.07), (21.0, 30.37), (2.0, 2.44), (2.0, 14.19), (11.05, 15.95), (8.43, 8.43), (4.19, 29.0)], [(20.68, 30.32), (29.0, 14.96), (20.48, 16.0), (17.0, 7.22), (21.0, 30.22), (2.0, 2.59), (2.0, 14.33), (11.15, 15.85), (8.32, 8.32), (4.33, 29.0)], [(20.78, 30.22), (29.0, 14.81), (20.33, 16.0), (17.0, 7.37), (21.0, 30.07), (2.0, 2.74), (2.0, 14.48), (11.26, 15.74), (8.22, 8.22), (4.48, 29.0)], [(20.89, 30.11), (29.0, 14.67), (20.19, 16.0), (17.0, 7.52), (21.0, 29.93), (2.0, 2.89), (2.0, 14.63), (11.36, 15.64), (8.11, 8.11), (4.63, 29.0)], [(20.99, 30.01), (29.0, 14.52), (20.04, 16.0), (17.0, 7.67), (21.0, 29.78), (2.0, 3.04), (2.0, 14.78), (11.47, 15.53), (8.01, 8.01), (4.78, 29.0)], [(21.1, 29.9), (29.0, 14.37), (19.89, 16.0), (17.0, 7.81), (21.0, 29.63), (2.0, 3.19), (2.0, 14.93), (11.57, 15.43), (7.9, 7.9), (4.93, 29.0)], [(21.2, 29.8), (29.0, 14.22), (19.74, 16.0), (17.0, 7.96), (21.0, 29.48), (2.0, 3.33), (2.0, 15.07), (11.68, 15.32), (7.8, 7.8), (5.07, 29.0)], [(21.31, 29.69), (29.0, 14.07), (19.59, 16.0), (17.0, 8.11), (21.0, 29.33), (2.0, 3.48), (2.0, 15.22), (11.78, 15.22), (7.69, 7.69), (5.22, 29.0)], [(21.41, 29.59), (29.0, 13.93), (19.44, 16.0), (17.0, 8.26), (21.0, 29.19), (2.0, 3.63), (2.0, 15.37), (11.89, 15.11), (7.59, 7.59), (5.37, 29.0)], [(21.52, 29.48), (29.0, 13.78), (19.3, 16.0), (17.0, 8.41), (21.0, 29.04), (2.0, 3.78), (2.0, 15.52), (11.99, 15.01), (7.48, 7.48), (5.52, 29.0)], [(21.62, 29.38), (29.0, 13.63), (19.15, 16.0), (17.0, 8.56), (21.0, 28.89), (2.0, 3.93), (2.0, 15.67), (12.1, 14.9), (7.38, 7.38), (5.67, 29.0)], [(21.73, 29.27), (29.0, 13.48), (19.0, 16.0), (17.0, 8.7), (21.0, 28.74), (2.0, 4.07), (2.0, 15.81), (12.2, 14.8), (7.27, 7.27), (5.81, 29.0)], [(21.83, 29.17), (29.0, 13.33), (19.0, 16.15), (17.0, 8.85), (21.0, 28.59), (2.0, 4.22), (2.0, 15.96), (12.31, 14.69), (7.17, 7.17), (5.96, 29.0)], [(21.73, 29.07), (29.0, 13.19), (19.0, 16.3), (17.0, 9.0), (21.0, 28.44), (2.0, 4.37), (2.0, 16.11), (12.41, 14.59), (7.07, 7.27), (6.11, 29.0)], [(21.62, 28.96), (29.0, 13.04), (19.0, 16.44), (17.1, 9.1), (21.0, 28.3), (2.0, 4.52), (2.0, 16.26), (12.52, 14.48), (6.96, 7.38), (6.26, 29.0)], [(21.52, 28.86), (29.0, 12.89), (19.0, 16.59), (17.21, 9.21), (21.0, 28.15), (2.0, 4.67), (2.0, 16.41), (12.62, 14.38), (6.86, 7.48), (6.41, 29.0)], [(21.41, 28.75), (29.0, 12.74), (19.0, 16.74), (17.31, 9.31), (21.0, 28.0), (2.0, 4.81), (2.0, 16.56), (12.73, 14.27), (6.75, 7.59), (6.56, 29.0)], [(21.31, 28.65), (29.0, 12.59), (19.0, 16.89), (17.42, 9.42), (20.9, 28.1), (2.0, 4.96), (2.0, 16.7), (12.83, 14.17), (6.65, 7.69), (6.7, 29.0)], [(21.2, 28.54), (29.0, 12.44), (19.0, 17.04), (17.52, 9.52), (20.79, 28.21), (2.0, 5.11), (2.0, 16.85), (12.83, 14.02), (6.54, 7.8), (6.85, 29.0)], [(21.1, 28.44), (29.0, 12.3), (19.0, 17.19), (17.63, 9.63), (20.69, 28.31), (2.0, 5.26), (2.0, 17.0), (12.83, 13.87), (6.44, 7.9), (7.0, 29.0)], [(20.99, 28.33), (29.0, 12.15), (19.0, 17.33), (17.73, 9.73), (20.58, 28.42), (2.0, 5.41), (2.0, 17.15), (12.83, 13.73), (6.33, 8.01), (7.1, 28.9)]]","[(21.07, 16.0), (20.93, 16.0), (20.78, 16.0), (20.63, 16.0), (20.48, 16.0), (20.33, 16.0), (20.19, 16.0), (20.04, 16.0), (19.89, 16.0), (19.74, 16.0), (19.59, 16.0), (19.44, 16.0), (19.3, 16.0), (19.15, 16.0), (19.0, 16.0), (19.0, 16.15), (19.0, 16.3), (19.0, 16.44), (19.0, 16.59), (19.0, 16.74), (19.0, 16.89), (19.0, 17.04), (19.0, 17.19), (19.0, 17.33)]",91.71,,,0.403
dynamic task,kh8_dt2,13,0,0,0,1,0.8350825244442603,10,"[[(18.0, 20.81), (11.36, 13.64), (19.37, 12.37), (8.16, 24.16), (7.94, 3.94), (25.37, 24.63), (6.15, 15.0), (5.0, 8.89), (10.94, 3.94), (17.85, 28.15)], [(18.0, 20.67), (11.47, 13.53), (19.27, 12.27), (8.06, 24.06), (8.05, 4.05), (25.27, 24.73), (6.3, 15.0), (5.0, 9.04), (11.05, 4.05), (17.74, 28.26)], [(18.0, 20.52), (11.57, 13.43), (19.16, 12.16), (7.95, 23.95), (8.15, 4.15), (25.16, 24.84), (6.44, 15.0), (5.0, 9.19), (11.15, 4.15), (17.64, 28.36)], [(18.0, 20.37), (11.68, 13.32), (19.06, 12.06), (7.85, 23.85), (8.26, 4.26), (25.06, 24.94), (6.59, 15.0), (5.0, 9.33), (11.26, 4.26), (17.53, 28.47)], [(18.0, 20.22), (11.78, 13.22), (18.95, 11.95), (7.74, 23.74), (8.36, 4.36), (24.95, 25.05), (6.74, 15.0), (5.0, 9.48), (11.36, 4.36), (17.43, 28.57)], [(18.0, 20.07), (11.89, 13.11), (18.85, 11.85), (7.64, 23.64), (8.47, 4.47), (24.85, 25.15), (6.89, 15.0), (5.0, 9.63), (11.47, 4.47), (17.32, 28.68)], [(18.0, 19.93), (11.99, 13.01), (18.74, 11.74), (7.53, 23.53), (8.57, 4.57), (24.74, 25.26), (7.04, 15.0), (5.0, 9.78), (11.57, 4.57), (17.22, 28.78)], [(18.0, 19.78), (12.1, 12.9), (18.64, 11.64), (7.43, 23.43), (8.68, 4.68), (24.64, 25.36), (7.19, 15.0), (5.0, 9.93), (11.68, 4.68), (17.11, 28.89)], [(18.0, 19.63), (12.2, 12.8), (18.53, 11.53), (7.32, 23.32), (8.78, 4.78), (24.53, 25.47), (7.33, 15.0), (5.0, 10.07), (11.78, 4.78), (17.01, 28.99)], [(18.0, 19.48), (12.31, 12.69), (18.43, 11.43), (7.22, 23.22), (8.89, 4.89), (24.43, 25.57), (7.48, 15.0), (5.0, 10.22), (11.89, 4.89), (16.9, 29.1)], [(18.0, 19.33), (12.41, 12.59), (18.32, 11.32), (7.11, 23.11), (8.99, 4.99), (24.32, 25.68), (7.63, 15.0), (5.0, 10.37), (11.99, 4.99), (16.8, 29.2)], [(18.0, 19.19), (12.52, 12.48), (18.22, 11.22), (7.01, 23.01), (9.1, 5.1), (24.22, 25.78), (7.78, 15.0), (5.0, 10.52), (12.1, 5.1), (16.69, 29.31)], [(18.0, 19.04), (12.62, 12.38), (18.11, 11.11), (6.9, 22.9), (9.2, 5.2), (24.11, 25.89), (7.93, 15.0), (5.0, 10.67), (12.2, 5.2), (16.59, 29.41)], [(18.0, 18.89), (12.73, 12.27), (18.01, 11.01), (6.8, 22.8), (9.31, 5.31), (24.01, 25.99), (8.07, 15.0), (5.0, 10.81), (12.31, 5.31), (16.48, 29.52)]]",,0.0,,,0.553
dynamic task,kh8_dt2,14,0,0,0,1,1.1923103288886523,10,"[[(4.04, 16.0), (2.52, 31.48), (15.0, 10.04), (27.0, 21.3), (3.15, 22.85), (28.81, 30.0), (31.0, 32.0), (23.15, 29.0), (6.85, 29.85), (26.15, 4.15)], [(4.19, 16.0), (2.63, 31.37), (15.0, 10.19), (27.0, 21.44), (3.26, 22.74), (28.67, 30.0), (31.0, 31.85), (23.3, 29.0), (6.74, 29.74), (26.26, 4.26)], [(4.33, 16.0), (2.73, 31.27), (15.0, 10.33), (27.0, 21.59), (3.36, 22.64), (28.52, 30.0), (31.0, 31.7), (23.44, 29.0), (6.64, 29.64), (26.36, 4.36)], [(4.48, 16.0), (2.84, 31.16), (15.0, 10.48), (27.0, 21.74), (3.47, 22.53), (28.37, 30.0), (31.0, 31.56), (23.59, 29.0), (6.53, 29.53), (26.47, 4.47)], [(4.63, 16.0), (2.94, 31.06), (15.0, 10.63), (27.0, 21.89), (3.57, 22.43), (28.22, 30.0), (31.0, 31.41), (23.74, 29.0), (6.43, 29.43), (26.57, 4.57)], [(4.78, 16.0), (3.05, 30.95), (15.0, 10.78), (27.0, 22.04), (3.68, 22.32), (28.07, 30.0), (31.0, 31.26), (23.89, 29.0), (6.32, 29.32), (26.68, 4.68)], [(4.93, 16.0), (3.15, 30.85), (15.0, 10.93), (27.0, 22.19), (3.78, 22.22), (27.93, 30.0), (31.0, 31.11), (24.04, 29.0), (6.22, 29.22), (26.78, 4.78)], [(5.07, 16.0), (3.26, 30.74), (15.0, 11.07), (27.0, 22.33), (3.89, 22.11), (27.78, 30.0), (31.0, 30.96), (24.19, 29.0), (6.11, 29.11), (26.89, 4.89)], [(5.22, 16.0), (3.36, 30.64), (15.0, 11.22), (27.0, 22.48), (3.99, 22.01), (27.63, 30.0), (31.0, 30.81), (24.33, 29.0), (6.01, 29.01), (26.99, 4.99)], [(5.37, 16.0), (3.47, 30.53), (15.0, 11.37), (27.0, 22.63), (4.1, 21.9), (27.48, 30.0), (31.0, 30.67), (24.48, 29.0), (5.9, 28.9), (27.1, 5.1)], [(5.52, 16.0), (3.57, 30.43), (15.0, 11.52), (27.0, 22.78), (4.2, 21.8), (27.33, 30.0), (31.0, 30.52), (24.63, 29.0), (5.8, 28.8), (27.2, 5.2)], [(5.67, 16.0), (3.68, 30.32), (15.0, 11.67), (27.0, 22.93), (4.31, 21.69), (27.19, 30.0), (31.0, 30.37), (24.78, 29.0), (5.69, 28.69), (27.31, 5.31)], [(5.81, 16.0), (3.78, 30.22), (15.0, 11.81), (27.0, 23.07), (4.41, 21.59), (27.04, 30.0), (31.0, 30.22), (24.93, 29.0), (5.59, 28.59), (27.41, 5.41)], [(5.96, 16.0), (3.89, 30.11), (15.0, 11.96), (27.0, 23.22), (4.52, 21.48), (26.89, 30.0), (31.0, 30.07), (25.07, 29.0), (5.48, 28.48), (27.52, 5.52)], [(6.11, 16.0), (3.99, 30.01), (15.0, 12.11), (27.0, 23.37), (4.62, 21.38), (26.74, 30.0), (31.0, 29.93), (25.22, 29.0), (5.38, 28.38), (27.62, 5.62)], [(6.26, 16.0), (4.1, 29.9), (15.0, 12.26), (27.0, 23.52), (4.73, 21.27), (26.59, 30.0), (31.0, 29.78), (25.37, 29.0), (5.27, 28.27), (27.73, 5.73)], [(6.41, 16.0), (4.2, 29.8), (15.0, 12.41), (27.0, 23.67), (4.83, 21.17), (26.44, 30.0), (31.0, 29.63), (25.52, 29.0), (5.17, 28.17), (27.83, 5.83)], [(6.56, 16.0), (4.31, 29.69), (15.0, 12.56), (27.0, 23.81), (4.93, 21.27), (26.3, 30.0), (31.0, 29.48), (25.67, 29.0), (5.17, 28.32), (27.68, 5.83)], [(6.7, 16.0), (4.41, 29.59), (15.0, 12.7), (27.0, 23.96), (5.04, 21.38), (26.15, 30.0), (31.0, 29.33), (25.81, 29.0), (5.17, 28.47), (27.53, 5.83)], [(6.85, 16.0), (4.52, 29.48), (15.0, 12.85), (27.0, 24.11), (5.14, 21.48), (26.0, 30.0), (31.0, 29.19), (25.96, 29.0), (5.17, 28.61), (27.39, 5.83)], [(7.0, 16.0), (4.62, 29.38), (15.0, 13.0), (27.0, 24.26), (5.25, 21.59), (25.9, 30.1), (31.0, 29.04), (26.11, 29.0), (5.17, 28.76), (27.24, 5.83)], [(6.9, 16.1), (4.73, 29.27), (15.0, 13.15), (27.0, 24.41), (5.35, 21.69), (25.79, 30.21), (31.0, 28.89), (26.26, 29.0), (5.17, 28.91), (27.09, 5.83)]]",,0.0,,,2.236
dynamic task,kh8_dt2,15,1,0,1,1,0.7745547377780895,10,"[[(27.16, 29.84), (7.56, 19.0), (20.0, 9.0), (10.85, 20.15), (18.0, 11.19), (7.96, 8.0), (5.0, 24.22), (30.0, 19.0), (29.0, 19.74), (14.0, 19.0)], [(27.06, 29.94), (7.41, 19.0), (20.0, 8.85), (10.74, 20.26), (18.0, 11.33), (7.81, 8.0), (5.0, 24.07), (30.1, 18.9), (29.0, 19.89), (13.9, 19.1)], [(26.95, 30.05), (7.26, 19.0), (20.0, 8.7), (10.64, 20.36), (18.0, 11.48), (7.67, 8.0), (5.0, 23.93), (30.21, 18.79), (29.0, 20.04), (13.79, 19.21)], [(26.85, 30.15), (7.11, 19.0), (20.0, 8.56), (10.53, 20.47), (18.0, 11.63), (7.52, 8.0), (5.0, 23.78), (30.31, 18.69), (29.0, 20.19), (13.69, 19.31)], [(26.74, 30.26), (6.96, 19.0), (20.0, 8.41), (10.43, 20.57), (18.0, 11.78), (7.37, 8.0), (5.0, 23.63), (30.42, 18.58), (29.0, 20.33), (13.58, 19.42)], [(26.64, 30.36), (6.81, 19.0), (20.0, 8.26), (10.32, 20.68), (18.0, 11.93), (7.22, 8.0), (5.0, 23.48), (30.52, 18.48), (29.0, 20.48), (13.48, 19.52)], [(26.53, 30.47), (6.67, 19.0), (20.0, 8.11), (10.22, 20.78), (18.0, 12.07), (7.07, 8.0), (5.0, 23.33), (30.63, 18.37), (29.0, 20.63), (13.37, 19.63)], [(26.43, 30.57), (6.52, 19.0), (20.0, 7.96), (10.11, 20.89), (18.0, 12.22), (6.93, 8.0), (5.0, 23.19), (30.73, 18.27), (29.0, 20.78), (13.27, 19.73)], [(26.32, 30.68), (6.37, 19.0), (20.0, 7.81), (10.01, 20.99), (18.0, 12.37), (6.78, 8.0), (5.0, 23.04), (30.84, 18.16), (29.0, 20.93), (13.16, 19.84)], [(26.22, 30.78), (6.22, 19.0), (20.0, 7.67), (9.9, 21.1), (18.0, 12.52), (6.63, 8.0), (5.0, 22.89), (30.94, 18.06), (29.0, 21.07), (13.06, 19.94)], [(26.11, 30.89), (6.07, 19.0), (20.0, 7.52), (9.8, 21.2), (18.0, 12.67), (6.48, 8.0), (5.0, 22.74), (31.05, 17.95), (29.0, 21.22), (12.95, 20.05)], [(26.01, 30.99), (5.93, 19.0), (20.0, 7.37), (9.69, 21.31), (18.0, 12.81), (6.33, 8.0), (5.0, 22.59), (31.15, 17.85), (29.0, 21.37), (12.85, 20.15)], [(25.9, 31.1), (5.78, 19.0), (20.0, 7.22), (9.59, 21.41), (18.0, 12.96), (6.19, 8.0), (5.0, 22.44), (31.26, 17.74), (29.0, 21.52), (12.74, 20.26)]]","[(18.0, 11.19), (18.0, 11.33), (18.0, 11.48), (18.0, 11.63), (18.0, 11.78), (18.0, 11.93), (18.0, 12.07), (18.0, 12.22), (18.0, 12.37), (18.0, 12.52), (18.0, 12.67), (18.0, 12.81), (18.0, 12.96)]",77.2,,,0.29
dynamic task,kh8_dt2,16,0,0,0,1,0.9230304711113604,10,"[[(32.0, 30.81), (30.11, 23.0), (25.59, 14.0), (11.78, 10.0), (3.0, 12.44), (20.52, 18.52), (29.73, 28.27), (7.74, 4.0), (19.79, 15.79), (19.0, 23.96)], [(32.0, 30.67), (29.96, 23.0), (25.74, 14.0), (11.93, 10.0), (3.0, 12.59), (20.63, 18.63), (29.84, 28.16), (7.89, 4.0), (19.69, 15.69), (19.0, 23.81)], [(32.0, 30.52), (29.81, 23.0), (25.89, 14.0), (12.07, 10.0), (3.0, 12.74), (20.73, 18.73), (29.94, 28.06), (8.04, 4.0), (19.58, 15.58), (19.0, 23.67)], [(32.0, 30.37), (29.67, 23.0), (26.04, 14.0), (12.22, 10.0), (3.0, 12.89), (20.84, 18.84), (30.05, 27.95), (8.19, 4.0), (19.48, 15.48), (19.0, 23.52)], [(32.0, 30.22), (29.52, 23.0), (26.19, 14.0), (12.37, 10.0), (3.0, 13.04), (20.94, 18.94), (30.15, 27.85), (8.33, 4.0), (19.37, 15.37), (19.0, 23.37)], [(32.0, 30.07), (29.37, 23.0), (26.33, 14.0), (12.52, 10.0), (3.0, 13.19), (21.05, 19.05), (30.26, 27.74), (8.48, 4.0), (19.27, 15.27), (19.0, 23.22)], [(32.0, 29.93), (29.22, 23.0), (26.48, 14.0), (12.67, 10.0), (3.0, 13.33), (21.15, 19.15), (30.36, 27.64), (8.63, 4.0), (19.16, 15.16), (19.0, 23.07)], [(32.0, 29.78), (29.07, 23.0), (26.63, 14.0), (12.81, 10.0), (3.0, 13.48), (21.26, 19.26), (30.47, 27.53), (8.78, 4.0), (19.06, 15.06), (19.0, 22.93)], [(32.0, 29.63), (28.93, 23.0), (26.78, 14.0), (12.96, 10.0), (3.0, 13.63), (21.36, 19.36), (30.57, 27.43), (8.93, 4.0), (18.95, 14.95), (19.0, 22.78)], [(32.0, 29.48), (28.78, 23.0), (26.93, 14.0), (13.11, 10.0), (3.0, 13.78), (21.47, 19.47), (30.68, 27.32), (9.07, 4.0), (18.85, 14.85), (19.0, 22.63)], [(32.0, 29.33), (28.63, 23.0), (27.07, 14.0), (13.26, 10.0), (3.0, 13.93), (21.57, 19.57), (30.78, 27.22), (9.22, 4.0), (18.74, 14.74), (19.0, 22.48)], [(32.0, 29.19), (28.48, 23.0), (27.22, 14.0), (13.41, 10.0), (3.0, 14.07), (21.68, 19.68), (30.89, 27.11), (9.37, 4.0), (18.64, 14.64), (19.0, 22.33)], [(32.0, 29.04), (28.33, 23.0), (27.37, 14.0), (13.56, 10.0), (3.0, 14.22), (21.78, 19.78), (30.99, 27.01), (9.52, 4.0), (18.53, 14.53), (19.0, 22.19)], [(32.0, 28.89), (28.19, 23.0), (27.52, 14.0), (13.7, 10.0), (3.0, 14.37), (21.89, 19.89), (31.1, 26.9), (9.67, 4.0), (18.43, 14.43), (19.0, 22.04)], [(32.0, 28.74), (28.04, 23.0), (27.67, 14.0), (13.85, 10.0), (3.0, 14.52), (21.99, 19.99), (31.2, 26.8), (9.81, 4.0), (18.32, 14.32), (19.0, 21.89)], [(32.0, 28.59), (27.89, 23.0), (27.81, 14.0), (14.0, 10.0), (3.0, 14.67), (22.1, 20.1), (31.31, 26.69), (9.96, 4.0), (18.22, 14.22), (19.0, 21.74)]]",,0.0,,,1.166
dynamic task,kh8_dt2,17,0,0,0,1,0.8660505600000761,10,"[[(8.74, 9.0), (23.48, 29.0), (2.0, 25.96), (3.15, 27.15), (31.41, 3.0), (32.0, 27.96), (11.26, 23.74), (12.0, 27.37), (26.63, 22.0), (4.33, 6.0)], [(8.89, 9.0), (23.63, 29.0), (2.0, 25.81), (3.26, 27.26), (31.26, 3.0), (32.0, 27.81), (11.36, 23.64), (12.0, 27.22), (26.78, 22.0), (4.48, 6.0)], [(9.04, 9.0), (23.78, 29.0), (2.0, 25.67), (3.36, 27.36), (31.11, 3.0), (32.0, 27.67), (11.47, 23.53), (12.0, 27.07), (26.93, 22.0), (4.63, 6.0)], [(9.19, 9.0), (23.93, 29.0), (2.0, 25.52), (3.47, 27.47), (30.96, 3.0), (32.0, 27.52), (11.57, 23.43), (12.0, 26.93), (27.07, 22.0), (4.78, 6.0)], [(9.33, 9.0), (24.07, 29.0), (2.0, 25.37), (3.57, 27.57), (30.81, 3.0), (32.0, 27.37), (11.68, 23.32), (12.0, 26.78), (27.22, 22.0), (4.93, 6.0)], [(9.48, 9.0), (24.22, 29.0), (2.0, 25.22), (3.68, 27.68), (30.67, 3.0), (32.0, 27.22), (11.78, 23.22), (12.0, 26.63), (27.37, 22.0), (5.07, 6.0)], [(9.63, 9.0), (24.37, 29.0), (2.0, 25.07), (3.78, 27.78), (30.52, 3.0), (32.0, 27.07), (11.89, 23.11), (12.0, 26.48), (27.52, 22.0), (5.22, 6.0)], [(9.78, 9.0), (24.52, 29.0), (2.0, 24.93), (3.89, 27.89), (30.37, 3.0), (32.0, 26.93), (11.99, 23.01), (12.0, 26.33), (27.67, 22.0), (5.37, 6.0)], [(9.93, 9.0), (24.67, 29.0), (2.0, 24.78), (3.99, 27.99), (30.22, 3.0), (32.0, 26.78), (12.1, 22.9), (12.0, 26.19), (27.81, 22.0), (5.52, 6.0)], [(10.07, 9.0), (24.81, 29.0), (2.0, 24.63), (4.1, 28.1), (30.07, 3.0), (32.0, 26.63), (12.2, 22.8), (12.0, 26.04), (27.96, 22.0), (5.67, 6.0)], [(10.22, 9.0), (24.96, 29.0), (2.0, 24.48), (4.2, 28.2), (29.93, 3.0), (32.0, 26.48), (12.31, 22.69), (12.0, 25.89), (28.11, 22.0), (5.81, 6.0)], [(10.37, 9.0), (25.11, 29.0), (2.0, 24.33), (4.31, 28.31), (29.78, 3.0), (32.0, 26.33), (12.41, 22.59), (12.0, 25.74), (28.26, 22.0), (5.96, 6.0)], [(10.52, 9.0), (25.26, 29.0), (2.0, 24.19), (4.41, 28.41), (29.63, 3.0), (32.0, 26.19), (12.52, 22.48), (12.0, 25.59), (28.41, 22.0), (6.11, 6.0)], [(10.67, 9.0), (25.41, 29.0), (2.0, 24.04), (4.52, 28.52), (29.48, 3.0), (32.0, 26.04), (12.62, 22.38), (12.0, 25.44), (28.56, 22.0), (6.26, 6.0)], [(10.81, 9.0), (25.56, 29.0), (2.0, 23.89), (4.62, 28.62), (29.33, 3.0), (32.0, 25.89), (12.73, 22.27), (12.0, 25.3), (28.7, 22.0), (6.41, 6.0)]]",,0.0,,,0.756
dynamic task,kh8_dt2,18,0,0,0,1,1.3023849244445955,10,"[[(21.05, 21.05), (29.84, 10.16), (11.85, 15.85), (14.27, 22.73), (13.0, 3.63), (2.0, 22.63), (30.85, 29.15), (29.7, 3.0), (22.63, 25.63), (6.05, 9.05)], [(21.15, 21.15), (29.94, 10.06), (11.74, 15.74), (14.16, 22.84), (13.0, 3.78), (2.0, 22.78), (30.74, 29.26), (29.56, 3.0), (22.73, 25.73), (6.15, 9.15)], [(21.26, 21.26), (30.05, 9.95), (11.64, 15.64), (14.06, 22.94), (13.0, 3.93), (2.0, 22.93), (30.64, 29.36), (29.41, 3.0), (22.84, 25.84), (6.26, 9.26)], [(21.36, 21.36), (30.15, 9.85), (11.53, 15.53), (13.95, 23.05), (13.0, 4.07), (2.0, 23.07), (30.53, 29.47), (29.26, 3.0), (22.94, 25.94), (6.36, 9.36)], [(21.47, 21.47), (30.26, 9.74), (11.43, 15.43), (13.85, 23.15), (13.0, 4.22), (2.0, 23.22), (30.43, 29.57), (29.11, 3.0), (23.05, 26.05), (6.47, 9.47)], [(21.57, 21.57), (30.36, 9.64), (11.32, 15.32), (13.74, 23.26), (13.0, 4.37), (2.0, 23.37), (30.32, 29.68), (28.96, 3.0), (23.15, 26.15), (6.57, 9.57)], [(21.68, 21.68), (30.47, 9.53), (11.22, 15.22), (13.64, 23.36), (13.0, 4.52), (2.0, 23.52), (30.22, 29.78), (28.81, 3.0), (23.26, 26.26), (6.68, 9.68)], [(21.78, 21.78), (30.57, 9.43), (11.11, 15.11), (13.53, 23.47), (13.0, 4.67), (2.0, 23.67), (30.11, 29.89), (28.67, 3.0), (23.36, 26.36), (6.78, 9.78)], [(21.89, 21.89), (30.68, 9.32), (11.01, 15.01), (13.43, 23.57), (13.0, 4.81), (2.0, 23.81), (30.01, 29.99), (28.52, 3.0), (23.47, 26.47), (6.89, 9.89)], [(21.99, 21.99), (30.78, 9.22), (10.9, 14.9), (13.32, 23.68), (13.0, 4.96), (2.0, 23.96), (29.9, 30.1), (28.37, 3.0), (23.57, 26.57), (6.99, 9.99)], [(22.1, 22.1), (30.89, 9.11), (10.8, 14.8), (13.22, 23.78), (13.0, 5.11), (2.0, 24.11), (29.8, 30.2), (28.22, 3.0), (23.68, 26.68), (7.1, 10.1)], [(22.2, 22.2), (30.99, 9.01), (10.69, 14.69), (13.11, 23.89), (13.0, 5.26), (2.0, 24.26), (29.69, 30.31), (28.07, 3.0), (23.78, 26.78), (7.2, 10.2)], [(22.31, 22.31), (31.1, 8.9), (10.59, 14.59), (13.01, 23.99), (13.0, 5.41), (2.0, 24.41), (29.59, 30.41), (27.93, 3.0), (23.89, 26.89), (7.31, 10.31)], [(22.41, 22.41), (31.2, 8.8), (10.48, 14.48), (12.9, 24.1), (13.0, 5.56), (2.0, 24.56), (29.48, 30.52), (27.78, 3.0), (23.99, 26.99), (7.41, 10.41)], [(22.52, 22.52), (31.31, 8.69), (10.38, 14.38), (12.8, 24.2), (13.0, 5.7), (2.0, 24.7), (29.38, 30.62), (27.63, 3.0), (24.1, 27.1), (7.52, 10.52)], [(22.62, 22.62), (31.41, 8.59), (10.27, 14.27), (12.69, 24.31), (13.0, 5.85), (2.0, 24.85), (29.27, 30.73), (27.48, 3.0), (24.2, 27.2), (7.62, 10.62)], [(22.73, 22.73), (31.52, 8.48), (10.17, 14.17), (12.59, 24.41), (13.0, 6.0), (2.0, 25.0), (29.17, 30.83), (27.33, 3.0), (24.31, 27.31), (7.73, 10.73)], [(22.83, 22.83), (31.62, 8.38), (10.17, 14.02), (12.48, 24.52), (13.0, 6.15), (2.1, 25.1), (29.07, 30.73), (27.19, 3.0), (24.41, 27.41), (7.83, 10.83)], [(22.73, 22.93), (31.73, 8.27), (10.17, 13.87), (12.38, 24.62), (13.0, 6.3), (2.21, 25.21), (28.96, 30.62), (27.04, 3.0), (24.52, 27.52), (7.93, 10.73)], [(22.62, 23.04), (31.83, 8.17), (10.17, 13.73), (12.27, 24.73), (13.0, 6.44), (2.31, 25.31), (28.86, 30.52), (26.89, 3.0), (24.62, 27.62), (8.04, 10.62)], [(22.52, 23.14), (31.83, 8.32), (10.17, 13.58), (12.17, 24.83), (13.0, 6.59), (2.42, 25.42), (28.75, 30.41), (26.74, 3.0), (24.73, 27.73), (8.14, 10.52)], [(22.41, 23.25), (31.83, 8.47), (10.17, 13.43), (12.02, 24.83), (13.0, 6.74), (2.52, 25.52), (28.65, 30.31), (26.59, 3.0), (24.83, 27.83), (8.25, 10.41)], [(22.31, 23.35), (31.83, 8.61), (10.17, 13.28), (11.87, 24.83), (13.0, 6.89), (2.63, 25.63), (28.54, 30.2), (26.44, 3.0), (24.93, 27.93), (8.35, 10.31)], [(22.2, 23.46), (31.83, 8.76), (10.17, 13.13), (11.73, 24.83), (13.0, 7.04), (2.73, 25.73), (28.44, 30.1), (26.3, 3.0), (25.04, 28.04), (8.46, 10.2)]]",,0.0,,,0.907
dynamic task,kh8_dt2,19,0,0,0,1,0.8660235377778918,10,"[[(24.0, 15.96), (6.07, 31.0), (9.41, 4.0), (8.0, 13.0), (14.85, 13.85), (8.85, 20.0), (4.0, 14.3), (19.85, 25.85), (3.0, 14.52), (2.0, 13.81)], [(24.0, 15.81), (5.93, 31.0), (9.26, 4.0), (8.1, 12.9), (14.74, 13.74), (8.7, 20.0), (4.0, 14.44), (19.74, 25.74), (3.0, 14.37), (2.0, 13.67)], [(24.0, 15.67), (5.78, 31.0), (9.11, 4.0), (8.21, 12.79), (14.64, 13.64), (8.56, 20.0), (4.0, 14.59), (19.64, 25.64), (3.0, 14.22), (2.0, 13.52)], [(24.0, 15.52), (5.63, 31.0), (8.96, 4.0), (8.31, 12.69), (14.53, 13.53), (8.41, 20.0), (4.0, 14.74), (19.53, 25.53), (3.0, 14.07), (2.0, 13.37)], [(24.0, 15.37), (5.48, 31.0), (8.81, 4.0), (8.42, 12.58), (14.43, 13.43), (8.26, 20.0), (4.0, 14.89), (19.43, 25.43), (3.0, 13.93), (2.0, 13.22)], [(24.0, 15.22), (5.33, 31.0), (8.67, 4.0), (8.52, 12.48), (14.32, 13.32), (8.11, 20.0), (4.0, 15.04), (19.32, 25.32), (3.0, 13.78), (2.0, 13.07)], [(24.0, 15.07), (5.19, 31.0), (8.52, 4.0), (8.63, 12.37), (14.22, 13.22), (7.96, 20.0), (4.0, 15.19), (19.22, 25.22), (3.0, 13.63), (2.0, 12.93)], [(24.0, 14.93), (5.04, 31.0), (8.37, 4.0), (8.73, 12.27), (14.11, 13.11), (7.81, 20.0), (4.0, 15.33), (19.11, 25.11), (3.0, 13.48), (2.0, 12.78)], [(24.0, 14.78), (4.89, 31.0), (8.22, 4.0), (8.84, 12.16), (14.01, 13.01), (7.67, 20.0), (4.0, 15.48), (19.01, 25.01), (3.0, 13.33), (2.0, 12.63)], [(24.0, 14.63), (4.74, 31.0), (8.07, 4.0), (8.94, 12.06), (13.9, 12.9), (7.52, 20.0), (4.0, 15.63), (18.9, 24.9), (3.0, 13.19), (2.0, 12.48)], [(24.0, 14.48), (4.59, 31.0), (7.93, 4.0), (9.05, 11.95), (13.8, 12.8), (7.37, 20.0), (4.0, 15.78), (18.8, 24.8), (3.0, 13.04), (2.0, 12.33)], [(24.0, 14.33), (4.44, 31.0), (7.78, 4.0), (9.15, 11.85), (13.69, 12.69), (7.22, 20.0), (4.0, 15.93), (18.69, 24.69), (3.0, 12.89), (2.0, 12.19)], [(24.0, 14.19), (4.3, 31.0), (7.63, 4.0), (9.26, 11.74), (13.59, 12.59), (7.07, 20.0), (4.0, 16.07), (18.59, 24.59), (3.0, 12.74), (2.0, 12.04)], [(24.0, 14.04), (4.15, 31.0), (7.48, 4.0), (9.36, 11.64), (13.48, 12.48), (6.93, 20.0), (4.0, 16.22), (18.48, 24.48), (3.0, 12.59), (2.0, 11.89)], [(24.0, 13.89), (4.0, 31.0), (7.33, 4.0), (9.47, 11.53), (13.38, 12.38), (6.78, 20.0), (4.0, 16.37), (18.38, 24.38), (3.0, 12.44), (2.0, 11.74)]]",,0.0,,,0.345
dynamic task,kh8_dt2,20,0,0,0,1,0.8654119822222128,10,"[[(3.0, 30.0), (27.0, 17.04), (5.1, 3.1), (20.0, 7.22), (24.63, 12.63), (28.19, 29.0), (25.74, 29.74), (25.84, 10.84), (25.0, 14.33), (26.9, 23.1)], [(3.15, 30.0), (27.0, 17.19), (5.21, 3.21), (20.0, 7.07), (24.73, 12.73), (28.33, 29.0), (25.64, 29.64), (25.94, 10.94), (25.0, 14.48), (26.79, 23.21)], [(3.3, 30.0), (27.0, 17.33), (5.31, 3.31), (20.0, 6.93), (24.84, 12.84), (28.48, 29.0), (25.53, 29.53), (26.05, 11.05), (25.0, 14.63), (26.69, 23.31)], [(3.44, 30.0), (27.0, 17.48), (5.42, 3.42), (20.0, 6.78), (24.94, 12.94), (28.63, 29.0), (25.43, 29.43), (26.15, 11.15), (25.0, 14.78), (26.58, 23.42)], [(3.59, 30.0), (27.0, 17.63), (5.52, 3.52), (20.0, 6.63), (25.05, 13.05), (28.78, 29.0), (25.32, 29.32), (26.26, 11.26), (25.0, 14.93), (26.48, 23.52)], [(3.74, 30.0), (27.0, 17.78), (5.63, 3.63), (20.0, 6.48), (25.15, 13.15), (28.93, 29.0), (25.22, 29.22), (26.36, 11.36), (25.0, 15.07), (26.37, 23.63)], [(3.89, 30.0), (27.0, 17.93), (5.73, 3.73), (20.0, 6.33), (25.26, 13.26), (29.07, 29.0), (25.11, 29.11), (26.47, 11.47), (25.0, 15.22), (26.27, 23.73)], [(4.04, 30.0), (27.0, 18.07), (5.84, 3.84), (20.0, 6.19), (25.36, 13.36), (29.22, 29.0), (25.01, 29.01), (26.57, 11.57), (25.0, 15.37), (26.16, 23.84)], [(4.19, 30.0), (27.0, 18.22), (5.94, 3.94), (20.0, 6.04), (25.47, 13.47), (29.37, 29.0), (24.9, 28.9), (26.68, 11.68), (25.0, 15.52), (26.06, 23.94)], [(4.33, 30.0), (27.0, 18.37), (6.05, 4.05), (20.0, 5.89), (25.57, 13.57), (29.52, 29.0), (24.8, 28.8), (26.78, 11.78), (25.0, 15.67), (25.95, 24.05)], [(4.48, 30.0), (27.0, 18.52), (6.15, 4.15), (20.0, 5.74), (25.68, 13.68), (29.67, 29.0), (24.69, 28.69), (26.89, 11.89), (25.0, 15.81), (25.85, 24.15)], [(4.63, 30.0), (27.0, 18.67), (6.26, 4.26), (20.0, 5.59), (25.78, 13.78), (29.81, 29.0), (24.59, 28.59), (26.99, 11.99), (25.0, 15.96), (25.74, 24.26)], [(4.78, 30.0), (27.0, 18.81), (6.36, 4.36), (20.0, 5.44), (25.89, 13.89), (29.96, 29.0), (24.48, 28.48), (27.1, 12.1), (25.0, 16.11), (25.64, 24.36)], [(4.93, 30.0), (27.0, 18.96), (6.47, 4.47), (20.0, 5.3), (25.99, 13.99), (30.11, 29.0), (24.38, 28.38), (27.2, 12.2), (25.0, 16.26), (25.53, 24.47)], [(5.07, 30.0), (27.0, 19.11), (6.57, 4.57), (20.0, 5.15), (26.1, 14.1), (30.26, 29.0), (24.27, 28.27), (27.31, 12.31), (25.0, 16.41), (25.43, 24.57)]]",,0.0,,,2.321
dynamic task,kh8_dt2,21,0,0,0,1,0.7742822400000478,10,"[[(6.21, 8.79), (3.63, 8.0), (19.36, 22.36), (6.06, 5.94), (32.0, 13.11), (23.0, 19.15), (21.94, 11.06), (19.89, 32.0), (25.93, 12.0), (26.74, 17.74)], [(6.31, 8.69), (3.78, 8.0), (19.47, 22.47), (5.95, 6.05), (32.0, 12.96), (23.0, 19.3), (22.05, 10.95), (20.04, 32.0), (26.07, 12.0), (26.64, 17.64)], [(6.42, 8.58), (3.93, 8.0), (19.57, 22.57), (5.85, 6.15), (32.0, 12.81), (23.0, 19.44), (22.15, 10.85), (20.19, 32.0), (26.22, 12.0), (26.53, 17.53)], [(6.52, 8.48), (4.07, 8.0), (19.68, 22.68), (5.74, 6.26), (32.0, 12.67), (23.0, 19.59), (22.26, 10.74), (20.33, 32.0), (26.37, 12.0), (26.43, 17.43)], [(6.63, 8.37), (4.22, 8.0), (19.78, 22.78), (5.64, 6.36), (32.0, 12.52), (23.0, 19.74), (22.36, 10.64), (20.48, 32.0), (26.52, 12.0), (26.32, 17.32)], [(6.73, 8.27), (4.37, 8.0), (19.89, 22.89), (5.53, 6.47), (32.0, 12.37), (23.0, 19.89), (22.47, 10.53), (20.63, 32.0), (26.67, 12.0), (26.22, 17.22)], [(6.84, 8.16), (4.52, 8.0), (19.99, 22.99), (5.43, 6.57), (32.0, 12.22), (23.0, 20.04), (22.57, 10.43), (20.78, 32.0), (26.81, 12.0), (26.11, 17.11)], [(6.94, 8.06), (4.67, 8.0), (20.1, 23.1), (5.32, 6.68), (32.0, 12.07), (23.0, 20.19), (22.68, 10.32), (20.93, 32.0), (26.96, 12.0), (26.01, 17.01)], [(7.05, 7.95), (4.81, 8.0), (20.2, 23.2), (5.22, 6.78), (32.0, 11.93), (23.0, 20.33), (22.78, 10.22), (21.07, 32.0), (27.11, 12.0), (25.9, 16.9)], [(7.15, 7.85), (4.96, 8.0), (20.31, 23.31), (5.11, 6.89), (32.0, 11.78), (23.0, 20.48), (22.89, 10.11), (21.22, 32.0), (27.26, 12.0), (25.8, 16.8)], [(7.26, 7.74), (5.11, 8.0), (20.41, 23.41), (5.01, 6.99), (32.0, 11.63), (23.0, 20.63), (22.99, 10.01), (21.37, 32.0), (27.41, 12.0), (25.69, 16.69)], [(7.36, 7.64), (5.26, 8.0), (20.52, 23.52), (4.9, 7.1), (32.0, 11.48), (23.0, 20.78), (23.1, 9.9), (21.52, 32.0), (27.56, 12.0), (25.59, 16.59)], [(7.47, 7.53), (5.41, 8.0), (20.62, 23.62), (4.8, 7.2), (32.0, 11.33), (23.0, 20.93), (23.2, 9.8), (21.67, 32.0), (27.7, 12.0), (25.48, 16.48)]]",,0.0,,,0.72
dynamic task,kh8_dt2,22,0,0,0,1,1.139681564444345,10,"[[(8.15, 26.85), (8.74, 28.74), (8.79, 19.21), (4.0, 13.93), (19.94, 21.94), (3.36, 25.64), (3.52, 10.52), (28.0, 31.26), (16.79, 11.21), (28.1, 11.9)], [(8.26, 26.74), (8.64, 28.64), (8.69, 19.31), (4.0, 14.07), (20.05, 22.05), (3.47, 25.53), (3.63, 10.63), (28.0, 31.11), (16.69, 11.31), (28.21, 11.79)], [(8.36, 26.64), (8.53, 28.53), (8.58, 19.42), (4.0, 14.22), (20.15, 22.15), (3.57, 25.43), (3.73, 10.73), (28.0, 30.96), (16.58, 11.42), (28.31, 11.69)], [(8.47, 26.53), (8.43, 28.43), (8.48, 19.52), (4.0, 14.37), (20.26, 22.26), (3.68, 25.32), (3.84, 10.84), (28.0, 30.81), (16.48, 11.52), (28.42, 11.58)], [(8.57, 26.43), (8.32, 28.32), (8.37, 19.63), (4.0, 14.52), (20.36, 22.36), (3.78, 25.22), (3.94, 10.94), (28.0, 30.67), (16.37, 11.63), (28.52, 11.48)], [(8.68, 26.32), (8.22, 28.22), (8.27, 19.73), (4.0, 14.67), (20.47, 22.47), (3.89, 25.11), (4.05, 11.05), (28.0, 30.52), (16.27, 11.73), (28.63, 11.37)], [(8.78, 26.22), (8.11, 28.11), (8.16, 19.84), (4.0, 14.81), (20.57, 22.57), (3.99, 25.01), (4.15, 11.15), (28.0, 30.37), (16.16, 11.84), (28.73, 11.27)], [(8.89, 26.11), (8.01, 28.01), (8.06, 19.94), (4.0, 14.96), (20.68, 22.68), (4.1, 24.9), (4.26, 11.26), (28.0, 30.22), (16.06, 11.94), (28.84, 11.16)], [(8.99, 26.01), (7.9, 27.9), (7.95, 20.05), (4.0, 15.11), (20.78, 22.78), (4.2, 24.8), (4.36, 11.36), (28.0, 30.07), (15.95, 12.05), (28.94, 11.06)], [(9.1, 25.9), (7.8, 27.8), (7.85, 20.15), (4.0, 15.26), (20.89, 22.89), (4.31, 24.69), (4.47, 11.47), (28.0, 29.93), (15.85, 12.15), (29.05, 10.95)], [(9.2, 25.8), (7.69, 27.69), (7.74, 20.26), (4.0, 15.41), (20.99, 22.99), (4.41, 24.59), (4.57, 11.57), (28.0, 29.78), (15.74, 12.26), (29.15, 10.85)], [(9.31, 25.69), (7.59, 27.59), (7.64, 20.36), (4.0, 15.56), (21.1, 23.1), (4.52, 24.48), (4.68, 11.68), (28.0, 29.63), (15.64, 12.36), (29.26, 10.74)], [(9.41, 25.59), (7.48, 27.48), (7.53, 20.47), (4.0, 15.7), (21.2, 23.2), (4.62, 24.38), (4.78, 11.78), (28.0, 29.48), (15.53, 12.47), (29.36, 10.64)], [(9.52, 25.48), (7.38, 27.38), (7.43, 20.57), (4.0, 15.85), (21.31, 23.31), (4.73, 24.27), (4.89, 11.89), (28.0, 29.33), (15.43, 12.57), (29.47, 10.53)], [(9.62, 25.38), (7.27, 27.27), (7.32, 20.68), (4.0, 16.0), (21.41, 23.41), (4.83, 24.17), (4.99, 11.99), (28.0, 29.19), (15.32, 12.68), (29.57, 10.43)], [(9.73, 25.27), (7.17, 27.17), (7.22, 20.78), (4.15, 16.0), (21.52, 23.52), (4.73, 24.07), (5.1, 12.1), (28.0, 29.04), (15.22, 12.78), (29.68, 10.32)], [(9.83, 25.17), (7.02, 27.17), (7.11, 20.89), (4.3, 16.0), (21.62, 23.62), (4.62, 23.96), (5.2, 12.2), (28.0, 28.89), (15.11, 12.89), (29.78, 10.22)], [(9.83, 25.02), (6.87, 27.17), (7.01, 20.99), (4.44, 16.0), (21.73, 23.73), (4.52, 23.86), (5.31, 12.31), (28.0, 28.74), (15.01, 12.99), (29.89, 10.11)], [(9.83, 24.87), (6.73, 27.17), (6.9, 21.1), (4.59, 16.0), (21.83, 23.83), (4.41, 23.75), (5.41, 12.41), (28.0, 28.59), (14.9, 13.1), (29.99, 10.01)], [(9.83, 24.73), (6.58, 27.17), (6.8, 21.2), (4.74, 16.0), (21.83, 23.68), (4.31, 23.65), (5.52, 12.52), (28.0, 28.44), (14.8, 13.2), (30.1, 9.9)]]",,0.0,,,2.33
dynamic task,kh8_dt2,23,1,0,1,1,0.7253558044444617,10,"[[(8.63, 18.63), (22.0, 15.19), (9.15, 22.0), (4.0, 17.74), (17.0, 7.04), (28.0, 12.74), (8.31, 14.31), (30.63, 8.37), (29.0, 23.93), (23.15, 24.85)], [(8.73, 18.73), (22.0, 15.33), (9.3, 22.0), (4.0, 17.89), (17.0, 7.19), (28.0, 12.89), (8.42, 14.42), (30.73, 8.27), (29.0, 24.07), (23.26, 24.74)], [(8.84, 18.84), (22.0, 15.48), (9.44, 22.0), (4.0, 18.04), (17.0, 7.33), (28.0, 13.04), (8.52, 14.52), (30.84, 8.16), (29.0, 24.22), (23.36, 24.64)], [(8.94, 18.94), (22.0, 15.63), (9.59, 22.0), (4.0, 18.19), (17.0, 7.48), (28.0, 13.19), (8.63, 14.63), (30.94, 8.06), (29.0, 24.37), (23.47, 24.53)], [(9.05, 19.05), (22.0, 15.78), (9.74, 22.0), (4.0, 18.33), (17.0, 7.63), (28.0, 13.33), (8.73, 14.73), (31.05, 7.95), (29.0, 24.52), (23.57, 24.43)], [(9.15, 19.15), (22.0, 15.93), (9.89, 22.0), (4.0, 18.48), (17.0, 7.78), (28.0, 13.48), (8.84, 14.84), (31.15, 7.85), (29.0, 24.67), (23.68, 24.32)], [(9.26, 19.26), (22.0, 16.07), (10.04, 22.0), (4.0, 18.63), (17.0, 7.93), (28.0, 13.63), (8.94, 14.94), (31.26, 7.74), (29.0, 24.81), (23.78, 24.22)], [(9.36, 19.36), (22.0, 16.22), (10.19, 22.0), (4.0, 18.78), (17.0, 8.07), (28.0, 13.78), (9.05, 15.05), (31.36, 7.64), (29.0, 24.96), (23.89, 24.11)], [(9.47, 19.47), (22.0, 16.37), (10.33, 22.0), (4.0, 18.93), (17.0, 8.22), (28.0, 13.93), (9.15, 15.15), (31.47, 7.53), (29.0, 25.11), (23.99, 24.01)], [(9.57, 19.57), (22.0, 16.52), (10.48, 22.0), (4.0, 19.07), (17.0, 8.37), (28.0, 14.07), (9.26, 15.26), (31.57, 7.43), (29.0, 25.26), (24.1, 23.9)], [(9.68, 19.68), (22.0, 16.67), (10.63, 22.0), (4.0, 19.22), (17.0, 8.52), (28.0, 14.22), (9.36, 15.36), (31.68, 7.32), (29.0, 25.41), (24.2, 23.8)], [(9.78, 19.78), (22.0, 16.81), (10.78, 22.0), (4.0, 19.37), (17.0, 8.67), (28.0, 14.37), (9.47, 15.47), (31.78, 7.22), (29.0, 25.56), (24.31, 23.69)]]","[(30.63, 8.37), (30.73, 8.27), (30.84, 8.16), (30.94, 8.06), (31.05, 7.95), (31.15, 7.85), (31.26, 7.74), (31.36, 7.64), (31.47, 7.53), (31.57, 7.43), (31.68, 7.32), (31.78, 7.22)]",75.8,,,0.735
dynamic task,kh8_dt2,24,0,0,0,1,0.7799059911112636,10,"[[(16.36, 10.64), (29.37, 3.0), (19.0, 21.0), (12.69, 3.31), (18.9, 13.1), (28.81, 16.0), (19.22, 30.0), (9.04, 7.0), (20.27, 21.73), (13.9, 15.9)], [(16.47, 10.53), (29.22, 3.0), (18.9, 20.9), (12.58, 3.42), (18.79, 13.21), (28.67, 16.0), (19.07, 30.0), (9.19, 7.0), (20.16, 21.84), (13.79, 15.79)], [(16.57, 10.43), (29.07, 3.0), (18.79, 20.79), (12.48, 3.52), (18.69, 13.31), (28.52, 16.0), (18.93, 30.0), (9.33, 7.0), (20.06, 21.94), (13.69, 15.69)], [(16.68, 10.32), (28.93, 3.0), (18.69, 20.69), (12.37, 3.63), (18.58, 13.42), (28.37, 16.0), (18.78, 30.0), (9.48, 7.0), (19.95, 22.05), (13.58, 15.58)], [(16.78, 10.22), (28.78, 3.0), (18.58, 20.58), (12.27, 3.73), (18.48, 13.52), (28.22, 16.0), (18.63, 30.0), (9.63, 7.0), (19.85, 22.15), (13.48, 15.48)], [(16.89, 10.11), (28.63, 3.0), (18.48, 20.48), (12.16, 3.84), (18.37, 13.63), (28.07, 16.0), (18.48, 30.0), (9.78, 7.0), (19.74, 22.26), (13.37, 15.37)], [(16.99, 10.01), (28.48, 3.0), (18.37, 20.37), (12.06, 3.94), (18.27, 13.73), (27.93, 16.0), (18.33, 30.0), (9.93, 7.0), (19.64, 22.36), (13.27, 15.27)], [(17.1, 9.9), (28.33, 3.0), (18.27, 20.27), (11.95, 4.05), (18.16, 13.84), (27.78, 16.0), (18.19, 30.0), (10.07, 7.0), (19.53, 22.47), (13.16, 15.16)], [(17.2, 9.8), (28.19, 3.0), (18.16, 20.16), (11.85, 4.15), (18.06, 13.94), (27.63, 16.0), (18.04, 30.0), (10.22, 7.0), (19.43, 22.57), (13.06, 15.06)], [(17.31, 9.69), (28.04, 3.0), (18.06, 20.06), (11.74, 4.26), (17.95, 14.05), (27.48, 16.0), (17.89, 30.0), (10.37, 7.0), (19.32, 22.68), (12.95, 14.95)], [(17.41, 9.59), (27.89, 3.0), (17.95, 19.95), (11.64, 4.36), (17.85, 14.15), (27.33, 16.0), (17.74, 30.0), (10.52, 7.0), (19.22, 22.78), (12.85, 14.85)], [(17.52, 9.48), (27.74, 3.0), (17.85, 19.85), (11.53, 4.47), (17.74, 14.26), (27.19, 16.0), (17.59, 30.0), (10.67, 7.0), (19.11, 22.89), (12.74, 14.74)], [(17.62, 9.38), (27.59, 3.0), (17.74, 19.74), (11.43, 4.57), (17.64, 14.36), (27.04, 16.0), (17.44, 30.0), (10.81, 7.0), (19.01, 22.99), (12.64, 14.64)]]",,0.0,,,0.814
dynamic task,kh8_dt2,25,1,0,0,0,0.8234063644445087,10,"[[(5.27, 15.27), (8.0, 2.0), (5.0, 5.15), (3.74, 15.0), (30.0, 2.89), (29.95, 29.95), (6.15, 2.0), (8.31, 30.31), (23.06, 8.94), (20.44, 27.0)], [(5.16, 15.16), (7.9, 2.1), (5.0, 5.3), (3.89, 15.0), (30.0, 3.04), (29.85, 29.85), (6.3, 2.0), (8.42, 30.42), (22.95, 9.05), (20.59, 27.0)], [(5.06, 15.06), (7.79, 2.21), (5.0, 5.44), (4.04, 15.0), (30.0, 3.19), (29.74, 29.74), (6.44, 2.0), (8.52, 30.52), (22.85, 9.15), (20.74, 27.0)], [(4.95, 14.95), (7.69, 2.31), (5.0, 5.59), (4.19, 15.0), (30.0, 3.33), (29.64, 29.64), (6.59, 2.0), (8.63, 30.63), (22.74, 9.26), (20.89, 27.0)], [(4.85, 14.85), (7.58, 2.42), (5.0, 5.74), (4.33, 15.0), (30.0, 3.48), (29.53, 29.53), (6.74, 2.0), (8.73, 30.73), (22.64, 9.36), (21.04, 27.0)], [(4.74, 14.74), (7.48, 2.52), (5.0, 5.89), (4.48, 15.0), (30.0, 3.63), (29.43, 29.43), (6.89, 2.0), (8.84, 30.84), (22.53, 9.47), (21.19, 27.0)], [(4.64, 14.64), (7.37, 2.63), (5.0, 6.04), (4.63, 15.0), (30.0, 3.78), (29.32, 29.32), (7.04, 2.0), (8.94, 30.94), (22.43, 9.57), (21.33, 27.0)], [(4.53, 14.53), (7.27, 2.73), (5.0, 6.19), (4.78, 15.0), (30.0, 3.93), (29.22, 29.22), (7.19, 2.0), (9.05, 31.05), (22.32, 9.68), (21.48, 27.0)], [(4.43, 14.43), (7.16, 2.84), (5.0, 6.33), (4.93, 15.0), (30.0, 4.07), (29.11, 29.11), (7.33, 2.0), (9.15, 31.15), (22.22, 9.78), (21.63, 27.0)], [(4.32, 14.32), (7.06, 2.94), (5.0, 6.48), (5.07, 15.0), (30.0, 4.22), (29.01, 29.01), (7.48, 2.0), (9.26, 31.26), (22.11, 9.89), (21.78, 27.0)], [(4.22, 14.22), (6.95, 3.05), (5.0, 6.63), (5.22, 15.0), (30.0, 4.37), (28.9, 28.9), (7.63, 2.0), (9.36, 31.36), (22.01, 9.99), (21.93, 27.0)], [(4.11, 14.11), (6.85, 3.15), (5.0, 6.78), (5.37, 15.0), (30.0, 4.52), (28.8, 28.8), (7.78, 2.0), (9.47, 31.47), (21.9, 10.1), (22.07, 27.0)], [(4.01, 14.01), (6.74, 3.26), (5.0, 6.93), (5.52, 15.0), (30.0, 4.67), (28.69, 28.69), (7.93, 2.0), (9.57, 31.57), (21.8, 10.2), (22.22, 27.0)], [(3.9, 13.9), (6.64, 3.36), (5.0, 7.07), (5.67, 15.0), (30.0, 4.81), (28.59, 28.59), (8.07, 2.0), (9.68, 31.68), (21.69, 10.31), (22.37, 27.0)]]","[(5.0, 5.15), (5.0, 5.3), (5.0, 5.44), (5.0, 5.59), (5.0, 5.74), (5.0, 5.89), (5.0, 6.04), (5.0, 6.19), (5.0, 6.33), (5.0, 6.48), (5.0, 6.63), (5.0, 6.78), (5.0, 6.93), (5.0, 7.07)]",77.57,,,1.252
dynamic task,kh8_dt2,26,1,0,1,1,0.8917105777782126,10,"[[(31.0, 11.07), (30.85, 16.15), (16.15, 31.0), (26.15, 10.85), (11.0, 24.93), (16.0, 7.81), (17.42, 22.58), (22.7, 30.0), (2.0, 7.96), (27.0, 29.33)], [(31.0, 10.93), (30.74, 16.26), (16.3, 31.0), (26.26, 10.74), (11.0, 25.07), (16.0, 7.67), (17.52, 22.48), (22.56, 30.0), (2.0, 7.81), (27.0, 29.48)], [(31.0, 10.78), (30.64, 16.36), (16.44, 31.0), (26.36, 10.64), (11.0, 25.22), (16.0, 7.52), (17.63, 22.37), (22.41, 30.0), (2.0, 7.67), (27.0, 29.63)], [(31.0, 10.63), (30.53, 16.47), (16.59, 31.0), (26.47, 10.53), (11.0, 25.37), (16.0, 7.37), (17.73, 22.27), (22.26, 30.0), (2.0, 7.52), (27.0, 29.78)], [(31.0, 10.48), (30.43, 16.57), (16.74, 31.0), (26.57, 10.43), (11.0, 25.52), (16.0, 7.22), (17.84, 22.16), (22.11, 30.0), (2.0, 7.37), (27.0, 29.93)], [(31.0, 10.33), (30.32, 16.68), (16.89, 31.0), (26.68, 10.32), (11.0, 25.67), (16.0, 7.07), (17.94, 22.06), (21.96, 30.0), (2.0, 7.22), (27.0, 30.07)], [(31.0, 10.19), (30.22, 16.78), (17.04, 31.0), (26.78, 10.22), (11.0, 25.81), (16.0, 6.93), (18.05, 21.95), (21.81, 30.0), (2.0, 7.07), (27.0, 30.22)], [(31.0, 10.04), (30.11, 16.89), (17.19, 31.0), (26.89, 10.11), (11.0, 25.96), (16.0, 6.78), (18.15, 21.85), (21.67, 30.0), (2.0, 6.93), (27.0, 30.37)], [(31.0, 9.89), (30.01, 16.99), (17.33, 31.0), (26.99, 10.01), (11.0, 26.11), (16.0, 6.63), (18.26, 21.74), (21.52, 30.0), (2.0, 6.78), (27.0, 30.52)], [(31.0, 9.74), (29.9, 17.1), (17.48, 31.0), (27.1, 9.9), (11.0, 26.26), (16.0, 6.48), (18.36, 21.64), (21.37, 30.0), (2.0, 6.63), (27.0, 30.67)], [(31.0, 9.59), (29.8, 17.2), (17.63, 31.0), (27.2, 9.8), (11.0, 26.41), (16.0, 6.33), (18.47, 21.53), (21.22, 30.0), (2.0, 6.48), (27.0, 30.81)], [(31.0, 9.44), (29.69, 17.31), (17.78, 31.0), (27.31, 9.69), (11.0, 26.56), (16.0, 6.19), (18.57, 21.43), (21.07, 30.0), (2.0, 6.33), (27.0, 30.96)], [(31.0, 9.3), (29.59, 17.41), (17.93, 31.0), (27.41, 9.59), (11.0, 26.7), (16.0, 6.04), (18.68, 21.32), (20.93, 30.0), (2.0, 6.19), (27.0, 31.11)], [(31.0, 9.15), (29.48, 17.52), (18.07, 31.0), (27.52, 9.48), (11.0, 26.85), (16.0, 5.89), (18.78, 21.22), (20.78, 30.0), (2.0, 6.04), (27.0, 31.26)], [(31.0, 9.0), (29.38, 17.62), (18.22, 31.0), (27.62, 9.38), (11.0, 27.0), (16.0, 5.74), (18.89, 21.11), (20.63, 30.0), (2.0, 5.89), (27.0, 31.41)]]","[(30.85, 16.15), (30.74, 16.26), (30.64, 16.36), (30.53, 16.47), (30.43, 16.57), (30.32, 16.68), (30.22, 16.78), (30.11, 16.89), (30.01, 16.99), (29.9, 17.1), (29.8, 17.2), (29.69, 17.31), (29.59, 17.41), (29.48, 17.52), (29.38, 17.62)]",78.08,,,0.804
dynamic task,kh8_dt2,27,1,0,1,1,0.9277465599998322,10,"[[(7.64, 29.36), (16.0, 18.41), (30.0, 26.0), (23.85, 11.85), (4.0, 21.7), (18.0, 29.0), (24.0, 11.15), (14.63, 20.63), (10.0, 11.52), (32.0, 12.59)], [(7.53, 29.47), (16.0, 18.26), (30.1, 26.1), (23.74, 11.74), (4.0, 21.56), (17.9, 29.1), (24.0, 11.3), (14.73, 20.73), (10.0, 11.37), (32.0, 12.74)], [(7.43, 29.57), (16.0, 18.11), (30.21, 26.21), (23.64, 11.64), (4.0, 21.41), (17.79, 29.21), (24.0, 11.44), (14.84, 20.84), (10.0, 11.22), (32.0, 12.89)], [(7.32, 29.68), (16.0, 17.96), (30.31, 26.31), (23.53, 11.53), (4.0, 21.26), (17.69, 29.31), (24.0, 11.59), (14.94, 20.94), (10.0, 11.07), (32.0, 13.04)], [(7.22, 29.78), (16.0, 17.81), (30.42, 26.42), (23.43, 11.43), (4.0, 21.11), (17.58, 29.42), (24.0, 11.74), (15.05, 21.05), (10.0, 10.93), (32.0, 13.19)], [(7.11, 29.89), (16.0, 17.67), (30.52, 26.52), (23.32, 11.32), (4.0, 20.96), (17.48, 29.52), (24.0, 11.89), (15.15, 21.15), (10.0, 10.78), (32.0, 13.33)], [(7.01, 29.99), (16.0, 17.52), (30.63, 26.63), (23.22, 11.22), (4.0, 20.81), (17.37, 29.63), (24.0, 12.04), (15.26, 21.26), (10.0, 10.63), (32.0, 13.48)], [(6.9, 30.1), (16.0, 17.37), (30.73, 26.73), (23.11, 11.11), (4.0, 20.67), (17.27, 29.73), (24.0, 12.19), (15.36, 21.36), (10.0, 10.48), (32.0, 13.63)], [(6.8, 30.2), (16.0, 17.22), (30.84, 26.84), (23.01, 11.01), (4.0, 20.52), (17.16, 29.84), (24.0, 12.33), (15.47, 21.47), (10.0, 10.33), (32.0, 13.78)], [(6.69, 30.31), (16.0, 17.07), (30.94, 26.94), (22.9, 10.9), (4.0, 20.37), (17.06, 29.94), (24.0, 12.48), (15.57, 21.57), (10.0, 10.19), (32.0, 13.93)], [(6.59, 30.41), (16.0, 16.93), (31.05, 27.05), (22.8, 10.8), (4.0, 20.22), (16.95, 30.05), (24.0, 12.63), (15.68, 21.68), (10.0, 10.04), (32.0, 14.07)], [(6.48, 30.52), (16.0, 16.78), (31.15, 27.15), (22.69, 10.69), (4.0, 20.07), (16.85, 30.15), (24.0, 12.78), (15.78, 21.78), (10.0, 9.89), (32.0, 14.22)], [(6.38, 30.62), (16.0, 16.63), (31.26, 27.26), (22.59, 10.59), (4.0, 19.93), (16.74, 30.26), (24.0, 12.93), (15.89, 21.89), (10.0, 9.74), (32.0, 14.37)], [(6.27, 30.73), (16.0, 16.48), (31.36, 27.36), (22.48, 10.48), (4.0, 19.78), (16.64, 30.36), (24.0, 13.07), (15.99, 21.99), (10.0, 9.59), (32.0, 14.52)], [(6.17, 30.83), (16.0, 16.33), (31.47, 27.47), (22.38, 10.38), (4.0, 19.63), (16.53, 30.47), (24.0, 13.22), (16.1, 22.1), (10.0, 9.44), (32.0, 14.67)], [(6.02, 30.83), (16.0, 16.19), (31.57, 27.57), (22.27, 10.27), (4.0, 19.48), (16.43, 30.57), (24.0, 13.37), (16.2, 22.2), (10.0, 9.3), (32.0, 14.81)]]","[(4.0, 21.7), (4.0, 21.56), (4.0, 21.41), (4.0, 21.26), (4.0, 21.11), (4.0, 20.96), (4.0, 20.81), (4.0, 20.67), (4.0, 20.52), (4.0, 20.37), (4.0, 20.22), (4.0, 20.07), (4.0, 19.93), (4.0, 19.78), (4.0, 19.63), (4.0, 19.48)]",80.76,,,1.254
dynamic task,kh8_dt2,28,1,0,0,0,1.0291535644446412,10,"[[(10.0, 15.0), (11.63, 14.37), (15.31, 8.31), (20.0, 12.7), (21.84, 19.16), (4.04, 20.0), (8.79, 28.79), (19.85, 16.15), (9.33, 8.0), (2.0, 25.96)], [(9.9, 15.1), (11.73, 14.27), (15.42, 8.42), (20.0, 12.56), (21.94, 19.06), (4.19, 20.0), (8.69, 28.69), (19.74, 16.26), (9.48, 8.0), (2.0, 25.81)], [(9.79, 15.21), (11.84, 14.16), (15.52, 8.52), (20.0, 12.41), (22.05, 18.95), (4.33, 20.0), (8.58, 28.58), (19.64, 16.36), (9.63, 8.0), (2.0, 25.67)], [(9.69, 15.31), (11.94, 14.06), (15.63, 8.63), (20.0, 12.26), (22.15, 18.85), (4.48, 20.0), (8.48, 28.48), (19.53, 16.47), (9.78, 8.0), (2.0, 25.52)], [(9.58, 15.42), (12.05, 13.95), (15.73, 8.73), (20.0, 12.11), (22.26, 18.74), (4.63, 20.0), (8.37, 28.37), (19.43, 16.57), (9.93, 8.0), (2.0, 25.37)], [(9.48, 15.52), (12.15, 13.85), (15.84, 8.84), (20.0, 11.96), (22.36, 18.64), (4.78, 20.0), (8.27, 28.27), (19.32, 16.68), (10.07, 8.0), (2.0, 25.22)], [(9.37, 15.63), (12.26, 13.74), (15.94, 8.94), (20.0, 11.81), (22.47, 18.53), (4.93, 20.0), (8.16, 28.16), (19.22, 16.78), (10.22, 8.0), (2.0, 25.07)], [(9.27, 15.73), (12.36, 13.64), (16.05, 9.05), (20.0, 11.67), (22.57, 18.43), (5.07, 20.0), (8.06, 28.06), (19.11, 16.89), (10.37, 8.0), (2.0, 24.93)], [(9.16, 15.84), (12.47, 13.53), (16.15, 9.15), (20.0, 11.52), (22.68, 18.32), (5.22, 20.0), (7.95, 27.95), (19.01, 16.99), (10.52, 8.0), (2.0, 24.78)], [(9.06, 15.94), (12.57, 13.43), (16.26, 9.26), (20.0, 11.37), (22.78, 18.22), (5.37, 20.0), (7.85, 27.85), (18.9, 17.1), (10.67, 8.0), (2.0, 24.63)], [(8.95, 16.05), (12.68, 13.32), (16.36, 9.36), (20.0, 11.22), (22.89, 18.11), (5.52, 20.0), (7.74, 27.74), (18.8, 17.2), (10.81, 8.0), (2.0, 24.48)], [(8.85, 16.15), (12.78, 13.22), (16.47, 9.47), (20.0, 11.07), (22.99, 18.01), (5.67, 20.0), (7.64, 27.64), (18.69, 17.31), (10.96, 8.0), (2.0, 24.33)], [(8.74, 16.26), (12.89, 13.11), (16.57, 9.57), (20.0, 10.93), (23.1, 17.9), (5.81, 20.0), (7.53, 27.53), (18.59, 17.41), (11.11, 8.0), (2.0, 24.19)], [(8.64, 16.36), (12.99, 13.01), (16.68, 9.68), (20.0, 10.78), (23.2, 17.8), (5.96, 20.0), (7.43, 27.43), (18.48, 17.52), (11.26, 8.0), (2.0, 24.04)], [(8.53, 16.47), (13.1, 12.9), (16.78, 9.78), (20.0, 10.63), (23.31, 17.69), (6.11, 20.0), (7.32, 27.32), (18.38, 17.62), (11.41, 8.0), (2.0, 23.89)], [(8.43, 16.57), (13.2, 12.8), (16.89, 9.89), (20.0, 10.48), (23.41, 17.59), (6.26, 20.0), (7.22, 27.22), (18.27, 17.73), (11.56, 8.0), (2.0, 23.74)], [(8.32, 16.68), (13.31, 12.69), (16.99, 9.99), (20.0, 10.33), (23.52, 17.48), (6.41, 20.0), (7.11, 27.11), (18.17, 17.83), (11.7, 8.0), (2.0, 23.59)], [(8.22, 16.78), (13.41, 12.59), (17.1, 10.1), (20.0, 10.19), (23.62, 17.38), (6.56, 20.0), (7.01, 27.01), (18.17, 17.68), (11.85, 8.0), (2.0, 23.44)]]","[(19.85, 16.15), (19.74, 16.26), (19.64, 16.36), (19.53, 16.47), (19.43, 16.57), (19.32, 16.68), (19.22, 16.78), (19.11, 16.89), (19.01, 16.99), (18.9, 17.1), (18.8, 17.2), (18.69, 17.31), (18.59, 17.41), (18.48, 17.52), (18.38, 17.62), (18.27, 17.73), (18.17, 17.83), (18.17, 17.68)]",83.38,,,0.353
dynamic task,kh8_dt2,29,1,0,1,1,0.7853016177778045,10,"[[(22.19, 26.0), (5.0, 19.37), (6.89, 24.0), (22.33, 30.0), (7.93, 24.0), (26.93, 24.0), (3.0, 20.63), (8.37, 24.37), (22.93, 26.0), (26.52, 3.52)], [(22.33, 26.0), (5.0, 19.22), (7.04, 24.0), (22.48, 30.0), (8.07, 24.0), (27.07, 24.0), (3.0, 20.78), (8.27, 24.27), (23.07, 26.0), (26.63, 3.63)], [(22.48, 26.0), (5.0, 19.07), (7.19, 24.0), (22.63, 30.0), (8.22, 24.0), (27.22, 24.0), (3.0, 20.93), (8.16, 24.16), (23.22, 26.0), (26.73, 3.73)], [(22.63, 26.0), (5.0, 18.93), (7.33, 24.0), (22.78, 30.0), (8.37, 24.0), (27.37, 24.0), (3.0, 21.07), (8.06, 24.06), (23.37, 26.0), (26.84, 3.84)], [(22.78, 26.0), (5.0, 18.78), (7.48, 24.0), (22.93, 30.0), (8.52, 24.0), (27.52, 24.0), (3.0, 21.22), (7.95, 23.95), (23.52, 26.0), (26.94, 3.94)], [(22.93, 26.0), (5.0, 18.63), (7.63, 24.0), (23.07, 30.0), (8.67, 24.0), (27.67, 24.0), (3.0, 21.37), (7.85, 23.85), (23.67, 26.0), (27.05, 4.05)], [(23.07, 26.0), (5.0, 18.48), (7.78, 24.0), (23.22, 30.0), (8.81, 24.0), (27.81, 24.0), (3.0, 21.52), (7.74, 23.74), (23.81, 26.0), (27.15, 4.15)], [(23.22, 26.0), (5.0, 18.33), (7.93, 24.0), (23.37, 30.0), (8.96, 24.0), (27.96, 24.0), (3.0, 21.67), (7.64, 23.64), (23.96, 26.0), (27.26, 4.26)], [(23.37, 26.0), (5.0, 18.19), (8.07, 24.0), (23.52, 30.0), (9.11, 24.0), (28.11, 24.0), (3.0, 21.81), (7.53, 23.53), (24.11, 26.0), (27.36, 4.36)], [(23.52, 26.0), (5.0, 18.04), (8.22, 24.0), (23.67, 30.0), (9.26, 24.0), (28.26, 24.0), (3.0, 21.96), (7.43, 23.43), (24.26, 26.0), (27.47, 4.47)], [(23.67, 26.0), (5.0, 17.89), (8.37, 24.0), (23.81, 30.0), (9.41, 24.0), (28.41, 24.0), (3.0, 22.11), (7.32, 23.32), (24.41, 26.0), (27.57, 4.57)], [(23.81, 26.0), (5.0, 17.74), (8.52, 24.0), (23.96, 30.0), (9.56, 24.0), (28.56, 24.0), (3.0, 22.26), (7.22, 23.22), (24.56, 26.0), (27.68, 4.68)], [(23.96, 26.0), (5.0, 17.59), (8.67, 24.0), (24.11, 30.0), (9.7, 24.0), (28.7, 24.0), (3.0, 22.41), (7.11, 23.11), (24.7, 26.0), (27.78, 4.78)]]","[(8.37, 24.37), (8.27, 24.27), (8.16, 24.16), (8.06, 24.06), (7.95, 23.95), (7.85, 23.85), (7.74, 23.74), (7.64, 23.64), (7.53, 23.53), (7.43, 23.43), (7.32, 23.32), (7.22, 23.22), (7.11, 23.11)]",75.19,,,1.006
dynamic task,kh8_dt2,30,1,0,1,1,1.0149757155554653,10,"[[(27.36, 27.64), (7.0, 8.85), (32.0, 17.74), (28.9, 4.1), (13.93, 27.0), (28.0, 17.22), (15.19, 12.0), (17.58, 18.42), (2.21, 27.21), (9.96, 22.0)], [(27.47, 27.53), (7.0, 8.7), (32.0, 17.89), (28.79, 4.21), (14.07, 27.0), (28.0, 17.07), (15.33, 12.0), (17.48, 18.52), (2.31, 27.31), (9.81, 22.0)], [(27.57, 27.43), (7.0, 8.56), (32.0, 18.04), (28.69, 4.31), (14.22, 27.0), (28.0, 16.93), (15.48, 12.0), (17.37, 18.63), (2.42, 27.42), (9.67, 22.0)], [(27.68, 27.32), (7.0, 8.41), (32.0, 18.19), (28.58, 4.42), (14.37, 27.0), (28.0, 16.78), (15.63, 12.0), (17.27, 18.73), (2.52, 27.52), (9.52, 22.0)], [(27.78, 27.22), (7.0, 8.26), (32.0, 18.33), (28.48, 4.52), (14.52, 27.0), (28.0, 16.63), (15.78, 12.0), (17.16, 18.84), (2.63, 27.63), (9.37, 22.0)], [(27.89, 27.11), (7.0, 8.11), (32.0, 18.48), (28.37, 4.63), (14.67, 27.0), (28.0, 16.48), (15.93, 12.0), (17.06, 18.94), (2.73, 27.73), (9.22, 22.0)], [(27.99, 27.01), (7.0, 7.96), (32.0, 18.63), (28.27, 4.73), (14.81, 27.0), (28.0, 16.33), (16.07, 12.0), (16.95, 19.05), (2.84, 27.84), (9.07, 22.0)], [(28.1, 26.9), (7.0, 7.81), (32.0, 18.78), (28.16, 4.84), (14.96, 27.0), (28.0, 16.19), (16.22, 12.0), (16.85, 19.15), (2.94, 27.94), (8.93, 22.0)], [(28.2, 26.8), (7.0, 7.67), (32.0, 18.93), (28.06, 4.94), (15.11, 27.0), (28.0, 16.04), (16.37, 12.0), (16.74, 19.26), (3.05, 28.05), (8.78, 22.0)], [(28.31, 26.69), (7.0, 7.52), (32.0, 19.07), (27.95, 5.05), (15.26, 27.0), (28.0, 15.89), (16.52, 12.0), (16.64, 19.36), (3.15, 28.15), (8.63, 22.0)], [(28.41, 26.59), (7.0, 7.37), (32.0, 19.22), (27.85, 5.15), (15.41, 27.0), (28.0, 15.74), (16.67, 12.0), (16.53, 19.47), (3.26, 28.26), (8.48, 22.0)], [(28.52, 26.48), (7.0, 7.22), (32.0, 19.37), (27.74, 5.26), (15.56, 27.0), (28.0, 15.59), (16.81, 12.0), (16.43, 19.57), (3.36, 28.36), (8.33, 22.0)], [(28.62, 26.38), (7.0, 7.07), (32.0, 19.52), (27.64, 5.36), (15.7, 27.0), (28.0, 15.44), (16.96, 12.0), (16.32, 19.68), (3.47, 28.47), (8.19, 22.0)], [(28.73, 26.27), (7.0, 6.93), (32.0, 19.67), (27.53, 5.47), (15.85, 27.0), (28.0, 15.3), (17.11, 12.0), (16.22, 19.78), (3.57, 28.57), (8.04, 22.0)], [(28.83, 26.17), (7.0, 6.78), (32.0, 19.81), (27.43, 5.57), (16.0, 27.0), (28.0, 15.15), (17.26, 12.0), (16.11, 19.89), (3.68, 28.68), (7.89, 22.0)], [(28.83, 26.02), (7.0, 6.63), (32.0, 19.96), (27.32, 5.68), (16.0, 27.15), (28.0, 15.0), (17.41, 12.0), (16.01, 19.99), (3.78, 28.78), (7.74, 22.0)], [(28.83, 25.87), (7.0, 6.48), (32.0, 20.11), (27.22, 5.78), (16.0, 27.3), (27.9, 14.9), (17.56, 12.0), (15.9, 20.1), (3.89, 28.89), (7.59, 22.0)], [(28.83, 25.73), (7.0, 6.33), (32.0, 20.26), (27.11, 5.89), (16.0, 27.44), (27.79, 14.79), (17.7, 12.0), (15.8, 20.2), (3.99, 28.99), (7.44, 22.0)]]","[(7.0, 8.85), (7.0, 8.7), (7.0, 8.56), (7.0, 8.41), (7.0, 8.26), (7.0, 8.11), (7.0, 7.96), (7.0, 7.81), (7.0, 7.67), (7.0, 7.52), (7.0, 7.37), (7.0, 7.22), (7.0, 7.07), (7.0, 6.93), (7.0, 6.78), (7.0, 6.63), (7.0, 6.48), (7.0, 6.33)]",83.34,,,0.789
dynamic task,kh8_dt2,31,0,0,0,1,0.9665959822223158,10,"[[(9.64, 26.36), (29.58, 18.42), (16.41, 26.0), (4.59, 9.0), (28.95, 24.05), (28.0, 10.85), (20.0, 5.93), (21.1, 22.1), (21.0, 3.44), (7.84, 8.16)], [(9.53, 26.47), (29.48, 18.52), (16.26, 26.0), (4.74, 9.0), (28.85, 24.15), (28.0, 10.7), (20.0, 6.07), (21.21, 22.21), (21.0, 3.59), (7.94, 8.06)], [(9.43, 26.57), (29.37, 18.63), (16.11, 26.0), (4.89, 9.0), (28.74, 24.26), (28.0, 10.56), (20.0, 6.22), (21.31, 22.31), (21.0, 3.74), (8.05, 7.95)], [(9.32, 26.68), (29.27, 18.73), (15.96, 26.0), (5.04, 9.0), (28.64, 24.36), (28.0, 10.41), (20.0, 6.37), (21.42, 22.42), (21.0, 3.89), (8.15, 7.85)], [(9.22, 26.78), (29.16, 18.84), (15.81, 26.0), (5.19, 9.0), (28.53, 24.47), (28.0, 10.26), (20.0, 6.52), (21.52, 22.52), (21.0, 4.04), (8.26, 7.74)], [(9.11, 26.89), (29.06, 18.94), (15.67, 26.0), (5.33, 9.0), (28.43, 24.57), (28.0, 10.11), (20.0, 6.67), (21.63, 22.63), (21.0, 4.19), (8.36, 7.64)], [(9.01, 26.99), (28.95, 19.05), (15.52, 26.0), (5.48, 9.0), (28.32, 24.68), (28.0, 9.96), (20.0, 6.81), (21.73, 22.73), (21.0, 4.33), (8.47, 7.53)], [(8.9, 27.1), (28.85, 19.15), (15.37, 26.0), (5.63, 9.0), (28.22, 24.78), (28.0, 9.81), (20.0, 6.96), (21.84, 22.84), (21.0, 4.48), (8.57, 7.43)], [(8.8, 27.2), (28.74, 19.26), (15.22, 26.0), (5.78, 9.0), (28.11, 24.89), (28.0, 9.67), (20.0, 7.11), (21.94, 22.94), (21.0, 4.63), (8.68, 7.32)], [(8.69, 27.31), (28.64, 19.36), (15.07, 26.0), (5.93, 9.0), (28.01, 24.99), (28.0, 9.52), (20.0, 7.26), (22.05, 23.05), (21.0, 4.78), (8.78, 7.22)], [(8.59, 27.41), (28.53, 19.47), (14.93, 26.0), (6.07, 9.0), (27.9, 25.1), (28.0, 9.37), (20.0, 7.41), (22.15, 23.15), (21.0, 4.93), (8.89, 7.11)], [(8.48, 27.52), (28.43, 19.57), (14.78, 26.0), (6.22, 9.0), (27.8, 25.2), (28.0, 9.22), (20.0, 7.56), (22.26, 23.26), (21.0, 5.07), (8.99, 7.01)], [(8.38, 27.62), (28.32, 19.68), (14.63, 26.0), (6.37, 9.0), (27.69, 25.31), (28.0, 9.07), (20.0, 7.7), (22.36, 23.36), (21.0, 5.22), (9.1, 6.9)], [(8.27, 27.73), (28.22, 19.78), (14.48, 26.0), (6.52, 9.0), (27.59, 25.41), (28.0, 8.93), (20.0, 7.85), (22.47, 23.47), (21.0, 5.37), (9.2, 6.8)], [(8.17, 27.83), (28.11, 19.89), (14.33, 26.0), (6.67, 9.0), (27.48, 25.52), (28.0, 8.78), (20.0, 8.0), (22.57, 23.57), (21.0, 5.52), (9.31, 6.69)], [(8.07, 27.73), (28.01, 19.99), (14.19, 26.0), (6.81, 9.0), (27.38, 25.62), (28.0, 8.63), (20.1, 8.1), (22.68, 23.68), (21.0, 5.67), (9.41, 6.59)], [(7.96, 27.62), (27.9, 20.1), (14.04, 26.0), (6.96, 9.0), (27.27, 25.73), (28.0, 8.48), (20.21, 8.21), (22.78, 23.78), (21.0, 5.81), (9.52, 6.48)]]",,0.0,,,0.914
dynamic task,kh8_dt2,32,1,0,1,1,1.0101970488890402,10,"[[(6.93, 25.0), (18.85, 25.15), (19.9, 28.9), (8.58, 5.42), (11.74, 10.74), (22.16, 10.84), (21.06, 4.94), (26.21, 14.79), (13.0, 8.67), (31.0, 18.56)], [(7.07, 25.0), (18.74, 25.26), (19.79, 28.79), (8.48, 5.52), (11.64, 10.64), (22.06, 10.94), (20.95, 5.05), (26.31, 14.69), (13.0, 8.52), (31.0, 18.41)], [(7.22, 25.0), (18.64, 25.36), (19.69, 28.69), (8.37, 5.63), (11.53, 10.53), (21.95, 11.05), (20.85, 5.15), (26.42, 14.58), (13.0, 8.37), (31.0, 18.26)], [(7.37, 25.0), (18.53, 25.47), (19.58, 28.58), (8.27, 5.73), (11.43, 10.43), (21.85, 11.15), (20.74, 5.26), (26.52, 14.48), (13.0, 8.22), (31.0, 18.11)], [(7.52, 25.0), (18.43, 25.57), (19.48, 28.48), (8.16, 5.84), (11.32, 10.32), (21.74, 11.26), (20.64, 5.36), (26.63, 14.37), (13.0, 8.07), (31.0, 17.96)], [(7.67, 25.0), (18.32, 25.68), (19.37, 28.37), (8.06, 5.94), (11.22, 10.22), (21.64, 11.36), (20.53, 5.47), (26.73, 14.27), (13.0, 7.93), (31.0, 17.81)], [(7.81, 25.0), (18.22, 25.78), (19.27, 28.27), (7.95, 6.05), (11.11, 10.11), (21.53, 11.47), (20.43, 5.57), (26.84, 14.16), (13.0, 7.78), (31.0, 17.67)], [(7.96, 25.0), (18.11, 25.89), (19.16, 28.16), (7.85, 6.15), (11.01, 10.01), (21.43, 11.57), (20.32, 5.68), (26.94, 14.06), (13.0, 7.63), (31.0, 17.52)], [(8.11, 25.0), (18.01, 25.99), (19.06, 28.06), (7.74, 6.26), (10.9, 9.9), (21.32, 11.68), (20.22, 5.78), (27.05, 13.95), (13.0, 7.48), (31.0, 17.37)], [(8.26, 25.0), (17.9, 26.1), (18.95, 27.95), (7.64, 6.36), (10.8, 9.8), (21.22, 11.78), (20.11, 5.89), (27.15, 13.85), (13.0, 7.33), (31.0, 17.22)], [(8.41, 25.0), (17.8, 26.2), (18.85, 27.85), (7.53, 6.47), (10.69, 9.69), (21.11, 11.89), (20.01, 5.99), (27.26, 13.74), (13.0, 7.19), (31.0, 17.07)], [(8.56, 25.0), (17.69, 26.31), (18.74, 27.74), (7.43, 6.57), (10.59, 9.59), (21.01, 11.99), (19.9, 6.1), (27.36, 13.64), (13.0, 7.04), (31.0, 16.93)], [(8.7, 25.0), (17.59, 26.41), (18.64, 27.64), (7.32, 6.68), (10.48, 9.48), (20.9, 12.1), (19.8, 6.2), (27.47, 13.53), (13.0, 6.89), (31.0, 16.78)], [(8.85, 25.0), (17.48, 26.52), (18.53, 27.53), (7.22, 6.78), (10.38, 9.38), (20.8, 12.2), (19.69, 6.31), (27.57, 13.43), (13.0, 6.74), (31.0, 16.63)], [(9.0, 25.0), (17.38, 26.62), (18.43, 27.43), (7.11, 6.89), (10.27, 9.27), (20.69, 12.31), (19.59, 6.41), (27.68, 13.32), (13.0, 6.59), (31.0, 16.48)], [(9.0, 25.15), (17.27, 26.73), (18.32, 27.32), (7.01, 6.99), (10.17, 9.17), (20.59, 12.41), (19.48, 6.52), (27.78, 13.22), (13.0, 6.44), (31.0, 16.33)], [(9.0, 25.3), (17.17, 26.83), (18.22, 27.22), (6.9, 7.1), (10.32, 9.17), (20.48, 12.52), (19.38, 6.62), (27.89, 13.11), (13.0, 6.3), (31.0, 16.19)], [(9.0, 25.44), (17.07, 26.73), (18.11, 27.11), (6.8, 7.2), (10.47, 9.17), (20.38, 12.62), (19.27, 6.73), (27.99, 13.01), (13.0, 6.15), (31.0, 16.04)]]","[(13.0, 8.67), (13.0, 8.52), (13.0, 8.37), (13.0, 8.22), (13.0, 8.07), (13.0, 7.93), (13.0, 7.78), (13.0, 7.63), (13.0, 7.48), (13.0, 7.33), (13.0, 7.19), (13.0, 7.04), (13.0, 6.89), (13.0, 6.74), (13.0, 6.59), (13.0, 6.44), (13.0, 6.3), (13.0, 6.15)]",84.55,,,2.312
dynamic task,kh8_dt2,33,1,0,1,1,0.9246520888887062,10,"[[(4.04, 24.0), (5.42, 4.42), (23.58, 20.58), (8.69, 17.31), (22.58, 22.42), (20.0, 4.52), (3.0, 18.07), (18.41, 32.0), (4.19, 16.0), (6.42, 22.42)], [(4.19, 24.0), (5.52, 4.52), (23.48, 20.48), (8.58, 17.42), (22.48, 22.52), (20.0, 4.37), (3.0, 17.93), (18.26, 32.0), (4.33, 16.0), (6.52, 22.52)], [(4.33, 24.0), (5.63, 4.63), (23.37, 20.37), (8.48, 17.52), (22.37, 22.63), (20.0, 4.22), (3.0, 17.78), (18.11, 32.0), (4.48, 16.0), (6.63, 22.63)], [(4.48, 24.0), (5.73, 4.73), (23.27, 20.27), (8.37, 17.63), (22.27, 22.73), (20.0, 4.07), (3.0, 17.63), (17.96, 32.0), (4.63, 16.0), (6.73, 22.73)], [(4.63, 24.0), (5.84, 4.84), (23.16, 20.16), (8.27, 17.73), (22.16, 22.84), (20.0, 3.93), (3.0, 17.48), (17.81, 32.0), (4.78, 16.0), (6.84, 22.84)], [(4.78, 24.0), (5.94, 4.94), (23.06, 20.06), (8.16, 17.84), (22.06, 22.94), (20.0, 3.78), (3.0, 17.33), (17.67, 32.0), (4.93, 16.0), (6.94, 22.94)], [(4.93, 24.0), (6.05, 5.05), (22.95, 19.95), (8.06, 17.94), (21.95, 23.05), (20.0, 3.63), (3.0, 17.19), (17.52, 32.0), (5.07, 16.0), (7.05, 23.05)], [(5.07, 24.0), (6.15, 5.15), (22.85, 19.85), (7.95, 18.05), (21.85, 23.15), (20.0, 3.48), (3.0, 17.04), (17.37, 32.0), (5.22, 16.0), (7.15, 23.15)], [(5.22, 24.0), (6.26, 5.26), (22.74, 19.74), (7.85, 18.15), (21.74, 23.26), (20.0, 3.33), (3.0, 16.89), (17.22, 32.0), (5.37, 16.0), (7.26, 23.26)], [(5.37, 24.0), (6.36, 5.36), (22.64, 19.64), (7.74, 18.26), (21.64, 23.36), (20.0, 3.19), (3.0, 16.74), (17.07, 32.0), (5.52, 16.0), (7.36, 23.36)], [(5.52, 24.0), (6.47, 5.47), (22.53, 19.53), (7.64, 18.36), (21.53, 23.47), (20.0, 3.04), (3.0, 16.59), (16.93, 32.0), (5.67, 16.0), (7.47, 23.47)], [(5.67, 24.0), (6.57, 5.57), (22.43, 19.43), (7.53, 18.47), (21.43, 23.57), (20.0, 2.89), (3.0, 16.44), (16.78, 32.0), (5.81, 16.0), (7.57, 23.57)], [(5.81, 24.0), (6.68, 5.68), (22.32, 19.32), (7.43, 18.57), (21.32, 23.68), (20.0, 2.74), (3.0, 16.3), (16.63, 32.0), (5.96, 16.0), (7.68, 23.68)], [(5.96, 24.0), (6.78, 5.78), (22.22, 19.22), (7.32, 18.68), (21.22, 23.78), (20.0, 2.59), (3.0, 16.15), (16.48, 32.0), (6.11, 16.0), (7.78, 23.78)], [(6.11, 24.0), (6.89, 5.89), (22.11, 19.11), (7.22, 18.78), (21.11, 23.89), (20.0, 2.44), (3.0, 16.0), (16.33, 32.0), (6.26, 16.0), (7.89, 23.89)], [(6.26, 24.0), (6.99, 5.99), (22.01, 19.01), (7.11, 18.89), (21.01, 23.99), (20.0, 2.3), (3.0, 15.85), (16.19, 32.0), (6.41, 16.0), (7.99, 23.99)]]","[(5.42, 4.42), (5.52, 4.52), (5.63, 4.63), (5.73, 4.73), (5.84, 4.84), (5.94, 4.94), (6.05, 5.05), (6.15, 5.15), (6.26, 5.26), (6.36, 5.36), (6.47, 5.47), (6.57, 5.57), (6.68, 5.68), (6.78, 5.78), (6.89, 5.89), (6.99, 5.99)]",80.07,,,2.291
dynamic task,kh8_dt2,34,0,0,0,1,0.9122727822223169,10,"[[(7.15, 14.85), (21.9, 11.1), (31.36, 27.64), (17.56, 15.0), (27.0, 19.0), (18.85, 18.15), (23.22, 23.0), (7.73, 29.73), (6.31, 15.31), (13.42, 6.58)], [(7.26, 14.74), (21.79, 11.21), (31.47, 27.53), (17.41, 15.0), (26.85, 19.0), (18.74, 18.26), (23.07, 23.0), (7.84, 29.84), (6.42, 15.42), (13.52, 6.48)], [(7.36, 14.64), (21.69, 11.31), (31.57, 27.43), (17.26, 15.0), (26.7, 19.0), (18.64, 18.36), (22.93, 23.0), (7.94, 29.94), (6.52, 15.52), (13.63, 6.37)], [(7.47, 14.53), (21.58, 11.42), (31.68, 27.32), (17.11, 15.0), (26.56, 19.0), (18.53, 18.47), (22.78, 23.0), (8.05, 30.05), (6.63, 15.63), (13.73, 6.27)], [(7.57, 14.43), (21.48, 11.52), (31.78, 27.22), (16.96, 15.0), (26.41, 19.0), (18.43, 18.57), (22.63, 23.0), (8.15, 30.15), (6.73, 15.73), (13.84, 6.16)], [(7.68, 14.32), (21.37, 11.63), (31.89, 27.11), (16.81, 15.0), (26.26, 19.0), (18.32, 18.68), (22.48, 23.0), (8.26, 30.26), (6.84, 15.84), (13.94, 6.06)], [(7.78, 14.22), (21.27, 11.73), (31.99, 27.01), (16.67, 15.0), (26.11, 19.0), (18.22, 18.78), (22.33, 23.0), (8.36, 30.36), (6.94, 15.94), (14.05, 5.95)], [(7.89, 14.11), (21.16, 11.84), (32.1, 26.9), (16.52, 15.0), (25.96, 19.0), (18.11, 18.89), (22.19, 23.0), (8.47, 30.47), (7.05, 16.05), (14.15, 5.85)], [(7.99, 14.01), (21.06, 11.94), (32.2, 26.8), (16.37, 15.0), (25.81, 19.0), (18.01, 18.99), (22.04, 23.0), (8.57, 30.57), (7.15, 16.15), (14.26, 5.74)], [(8.1, 13.9), (20.95, 12.05), (32.31, 26.69), (16.22, 15.0), (25.67, 19.0), (17.9, 19.1), (21.89, 23.0), (8.68, 30.68), (7.26, 16.26), (14.36, 5.64)], [(8.2, 13.8), (20.85, 12.15), (32.41, 26.59), (16.07, 15.0), (25.52, 19.0), (17.8, 19.2), (21.74, 23.0), (8.78, 30.78), (7.36, 16.36), (14.47, 5.53)], [(8.31, 13.69), (20.74, 12.26), (32.52, 26.48), (15.93, 15.0), (25.37, 19.0), (17.69, 19.31), (21.59, 23.0), (8.89, 30.89), (7.47, 16.47), (14.57, 5.43)], [(8.41, 13.59), (20.64, 12.36), (32.62, 26.38), (15.78, 15.0), (25.22, 19.0), (17.59, 19.41), (21.44, 23.0), (8.99, 30.99), (7.57, 16.57), (14.68, 5.32)], [(8.52, 13.48), (20.53, 12.47), (32.73, 26.27), (15.63, 15.0), (25.07, 19.0), (17.48, 19.52), (21.3, 23.0), (9.1, 31.1), (7.68, 16.68), (14.78, 5.22)], [(8.62, 13.38), (20.43, 12.57), (32.83, 26.17), (15.48, 15.0), (24.93, 19.0), (17.38, 19.62), (21.15, 23.0), (9.2, 31.2), (7.78, 16.78), (14.89, 5.11)], [(8.73, 13.27), (20.32, 12.68), (32.68, 26.17), (15.33, 15.0), (24.78, 19.0), (17.27, 19.73), (21.0, 23.0), (9.31, 31.31), (7.89, 16.89), (14.99, 5.01)]]",,0.0,,,0.069
dynamic task,kh8_dt2,35,0,0,0,1,0.9125250844444963,10,"[[(2.0, 20.93), (21.0, 3.63), (32.0, 9.07), (29.07, 23.0), (17.05, 25.95), (5.05, 23.95), (4.0, 21.52), (18.0, 30.67), (20.19, 3.0), (26.26, 32.0)], [(2.0, 21.07), (21.0, 3.78), (32.0, 8.93), (28.93, 23.0), (17.15, 25.85), (5.15, 23.85), (4.0, 21.37), (18.0, 30.52), (20.33, 3.0), (26.11, 32.0)], [(2.0, 21.22), (21.0, 3.93), (32.0, 8.78), (28.78, 23.0), (17.26, 25.74), (5.26, 23.74), (4.0, 21.22), (18.0, 30.37), (20.48, 3.0), (25.96, 32.0)], [(2.0, 21.37), (21.0, 4.07), (32.0, 8.63), (28.63, 23.0), (17.36, 25.64), (5.36, 23.64), (4.0, 21.07), (18.0, 30.22), (20.63, 3.0), (25.81, 32.0)], [(2.0, 21.52), (21.0, 4.22), (32.0, 8.48), (28.48, 23.0), (17.47, 25.53), (5.47, 23.53), (4.0, 20.93), (18.0, 30.07), (20.78, 3.0), (25.67, 32.0)], [(2.0, 21.67), (21.0, 4.37), (32.0, 8.33), (28.33, 23.0), (17.57, 25.43), (5.57, 23.43), (4.0, 20.78), (18.0, 29.93), (20.93, 3.0), (25.52, 32.0)], [(2.0, 21.81), (21.0, 4.52), (32.0, 8.19), (28.19, 23.0), (17.68, 25.32), (5.68, 23.32), (4.0, 20.63), (18.0, 29.78), (21.07, 3.0), (25.37, 32.0)], [(2.0, 21.96), (21.0, 4.67), (32.0, 8.04), (28.04, 23.0), (17.78, 25.22), (5.78, 23.22), (4.0, 20.48), (18.0, 29.63), (21.22, 3.0), (25.22, 32.0)], [(2.0, 22.11), (21.0, 4.81), (32.0, 7.89), (27.89, 23.0), (17.89, 25.11), (5.89, 23.11), (4.0, 20.33), (18.0, 29.48), (21.37, 3.0), (25.07, 32.0)], [(2.0, 22.26), (21.0, 4.96), (32.0, 7.74), (27.74, 23.0), (17.99, 25.01), (5.99, 23.01), (4.0, 20.19), (18.0, 29.33), (21.52, 3.0), (24.93, 32.0)], [(2.0, 22.41), (21.0, 5.11), (32.0, 7.59), (27.59, 23.0), (18.1, 24.9), (6.1, 22.9), (4.0, 20.04), (18.0, 29.19), (21.67, 3.0), (24.78, 32.0)], [(2.0, 22.56), (21.0, 5.26), (32.0, 7.44), (27.44, 23.0), (18.2, 24.8), (6.2, 22.8), (4.0, 19.89), (18.0, 29.04), (21.81, 3.0), (24.63, 32.0)], [(2.0, 22.7), (21.0, 5.41), (32.0, 7.3), (27.3, 23.0), (18.31, 24.69), (6.31, 22.69), (4.0, 19.74), (18.0, 28.89), (21.96, 3.0), (24.48, 32.0)], [(2.0, 22.85), (21.0, 5.56), (32.0, 7.15), (27.15, 23.0), (18.41, 24.59), (6.41, 22.59), (4.0, 19.59), (18.0, 28.74), (22.11, 3.0), (24.33, 32.0)], [(2.0, 23.0), (21.0, 5.7), (32.0, 7.0), (27.0, 23.0), (18.52, 24.48), (6.52, 22.48), (4.0, 19.44), (18.0, 28.59), (22.26, 3.0), (24.19, 32.0)], [(2.0, 23.15), (21.0, 5.85), (31.9, 7.1), (27.0, 22.85), (18.62, 24.38), (6.62, 22.38), (4.0, 19.3), (18.0, 28.44), (22.41, 3.0), (24.04, 32.0)]]",,0.0,,,1.318
