Task Type,Participant ID,Trial,Target Present,Target orientation,Response,Correct,Reaction Time (s),Num Gabors,Gabor Positions,Target Trajectory,Speed (px/s),FixOnTargetTime(s),LastFixIndex,CalibrationDrift(deg)
dynamic task,kh8_dt4,1,0,0,0,1,1.8864847644445035,10,"[[(6.6, 29.0), (13.0, 13.0), (7.0, 9.0), (4.0, 9.0), (14.8, 2.0), (3.28, 27.28), (10.8, 29.0), (6.0, 4.0), (15.72, 11.72), (29.0, 10.0)], [(6.2, 29.0), (13.28, 13.28), (7.0, 8.6), (4.28, 9.28), (15.2, 2.0), (3.57, 27.57), (10.4, 29.0), (6.4, 4.0), (15.43, 11.43), (29.28, 9.72)], [(5.8, 29.0), (13.57, 13.57), (7.0, 8.2), (4.57, 9.57), (15.6, 2.0), (3.85, 27.85), (10.0, 29.0), (6.8, 4.0), (15.15, 11.15), (29.57, 9.43)], [(5.4, 29.0), (13.85, 13.85), (7.0, 7.8), (4.85, 9.85), (16.0, 2.0), (4.13, 28.13), (9.6, 29.0), (7.2, 4.0), (14.87, 10.87), (29.85, 9.15)], [(5.0, 29.0), (14.13, 14.13), (7.0, 7.4), (5.13, 10.13), (16.4, 2.0), (4.42, 28.42), (9.2, 29.0), (7.6, 4.0), (14.58, 10.58), (30.13, 8.87)], [(4.6, 29.0), (14.42, 14.42), (7.0, 7.0), (5.42, 10.42), (16.8, 2.0), (4.7, 28.7), (8.8, 29.0), (8.0, 4.0), (14.3, 10.3), (30.42, 8.59)], [(4.2, 29.0), (14.7, 14.7), (7.0, 6.6), (5.7, 10.7), (17.2, 2.0), (4.98, 28.98), (8.4, 29.0), (8.28, 4.28), (14.02, 10.02), (30.7, 8.3)], [(3.8, 29.0), (14.98, 14.98), (7.0, 6.2), (5.98, 10.98), (17.6, 2.0), (5.26, 29.26), (8.0, 29.0), (8.57, 4.57), (13.74, 9.74), (30.98, 8.02)], [(3.4, 29.0), (15.26, 15.26), (7.0, 5.8), (6.26, 11.26), (18.0, 2.0), (5.55, 29.55), (8.0, 28.6), (8.85, 4.85), (13.45, 9.45), (31.26, 7.74)], [(3.0, 29.0), (15.55, 15.55), (7.0, 5.4), (6.55, 11.55), (18.0, 2.4), (5.83, 29.83), (8.0, 28.2), (9.13, 5.13), (13.17, 9.17), (31.55, 7.45)], [(3.28, 29.28), (15.83, 15.83), (7.0, 5.0), (6.83, 11.83), (18.0, 2.8), (5.83, 29.43), (8.0, 27.8), (9.41, 5.42), (13.17, 9.57), (31.83, 7.17)], [(3.57, 29.57), (15.83, 15.43), (6.72, 4.72), (6.43, 11.83), (18.0, 3.2), (5.83, 29.03), (8.0, 27.4), (9.7, 5.7), (13.17, 9.97), (31.43, 7.17)], [(3.85, 29.85), (15.83, 15.03), (6.43, 4.43), (6.03, 11.83), (18.0, 3.6), (5.83, 28.63), (8.0, 27.0), (9.98, 5.98), (13.17, 10.37), (31.03, 7.17)], [(4.13, 30.13), (15.83, 14.63), (6.15, 4.15), (5.63, 11.83), (18.0, 4.0), (5.83, 28.23), (8.0, 26.6), (10.26, 6.26), (13.17, 10.77), (30.63, 7.17)], [(4.42, 30.42), (15.83, 14.23), (5.87, 3.87), (5.23, 11.83), (18.0, 4.4), (5.83, 27.83), (8.0, 26.2), (10.55, 6.55), (13.17, 11.17), (30.23, 7.17)], [(4.7, 30.7), (15.83, 13.83), (5.58, 3.58), (4.83, 11.83), (18.0, 4.8), (5.83, 27.43), (8.0, 25.8), (10.83, 6.83), (13.17, 11.57), (29.83, 7.17)], [(4.98, 30.98), (15.83, 13.43), (5.3, 3.3), (4.43, 11.83), (18.0, 5.2), (5.83, 27.03), (8.0, 25.4), (11.23, 6.83), (13.17, 11.97), (29.43, 7.17)], [(5.26, 31.26), (15.83, 13.03), (5.02, 3.02), (4.03, 11.83), (18.0, 5.6), (5.83, 26.63), (8.0, 25.0), (11.63, 6.83), (13.17, 12.37), (29.03, 7.17)], [(5.55, 31.55), (15.83, 12.63), (4.74, 2.74), (3.63, 11.83), (18.0, 6.0), (5.83, 26.23), (7.72, 25.28), (12.03, 6.83), (13.17, 12.77), (28.63, 7.17)], [(5.83, 31.83), (15.83, 12.23), (4.45, 2.45), (3.23, 11.83), (17.72, 6.28), (5.83, 25.83), (7.43, 25.57), (12.43, 6.83), (13.17, 13.17), (28.23, 7.17)], [(6.23, 31.83), (15.83, 11.83), (4.17, 2.17), (2.83, 11.83), (17.43, 6.57), (6.11, 26.11), (7.15, 25.85), (12.83, 6.83), (13.17, 13.57), (27.83, 7.17)], [(6.63, 31.83), (16.11, 11.55), (4.57, 2.17), (3.11, 11.55), (17.15, 6.85), (6.4, 26.4), (6.87, 26.13), (13.23, 6.83), (13.17, 13.97), (27.55, 7.45)], [(7.03, 31.83), (16.4, 11.26), (4.97, 2.17), (3.4, 11.26), (16.87, 7.13), (6.68, 26.68), (6.58, 26.42), (13.63, 6.83), (13.17, 14.37), (27.26, 7.74)], [(7.43, 31.83), (16.68, 10.98), (5.37, 2.17), (3.68, 10.98), (16.58, 7.42), (6.96, 26.96), (6.3, 26.7), (14.03, 6.83), (13.17, 14.77), (26.98, 8.02)], [(7.83, 31.83), (16.96, 10.7), (5.77, 2.17), (3.96, 10.7), (16.3, 7.7), (7.24, 27.24), (6.02, 26.98), (14.43, 6.83), (13.17, 15.17), (26.7, 8.3)], [(8.23, 31.83), (17.24, 10.42), (6.17, 2.17), (4.24, 10.42), (16.02, 7.98), (7.53, 27.53), (5.74, 27.26), (14.83, 6.83), (13.17, 15.57), (26.42, 8.59)], [(8.63, 31.83), (17.53, 10.13), (6.57, 2.17), (4.53, 10.13), (15.74, 8.26), (7.81, 27.81), (5.45, 27.55), (15.11, 7.11), (13.17, 15.97), (26.13, 8.87)], [(9.03, 31.83), (17.81, 9.85), (6.97, 2.17), (4.81, 9.85), (15.45, 8.55), (8.09, 28.09), (5.17, 27.83), (15.4, 7.4), (13.17, 16.37), (25.85, 9.15)], [(9.43, 31.83), (18.09, 9.57), (7.37, 2.17), (5.09, 9.57), (15.17, 8.83), (8.38, 28.38), (5.17, 27.43), (15.68, 7.68), (13.17, 16.77), (25.57, 9.43)], [(9.83, 31.83), (18.38, 9.28), (7.77, 2.17), (5.38, 9.28), (15.57, 8.83), (8.66, 28.66), (5.17, 27.03), (15.96, 7.96), (13.17, 17.17), (25.28, 9.72)], [(9.55, 31.55), (18.66, 9.0), (8.17, 2.17), (5.66, 9.0), (15.97, 8.83), (8.66, 29.06), (5.17, 26.63), (16.24, 8.25), (12.89, 17.45), (25.0, 10.0)], [(9.26, 31.26), (18.66, 9.4), (8.57, 2.17), (5.66, 9.4), (16.37, 8.83), (8.66, 29.46), (5.17, 26.23), (16.53, 8.53), (12.6, 17.74), (25.0, 9.6)], [(8.98, 30.98), (18.66, 9.8), (8.97, 2.17), (5.66, 9.8), (16.77, 8.83), (8.66, 29.86), (5.17, 25.83), (16.81, 8.81), (12.32, 18.02), (25.0, 9.2)], [(8.7, 30.7), (18.66, 10.2), (9.37, 2.17), (5.66, 10.2), (17.17, 8.83), (8.66, 30.26), (5.17, 25.43), (17.09, 9.09), (12.04, 18.3), (25.0, 8.8)], [(8.41, 30.42), (18.66, 10.6), (9.77, 2.17), (5.66, 10.6), (17.57, 8.83), (8.66, 30.66), (5.17, 25.03), (17.38, 9.38), (11.76, 18.58), (25.0, 8.4)]]",,0.0,,,1.077
dynamic task,kh8_dt4,2,1,0,1,1,0.7743286044446904,10,"[[(11.0, 18.8), (23.0, 31.2), (28.0, 12.0), (6.15, 13.85), (16.0, 18.0), (18.0, 27.0), (27.58, 30.42), (25.0, 11.4), (7.43, 11.43), (8.85, 22.85)], [(11.0, 19.2), (23.0, 30.8), (27.6, 12.0), (5.87, 14.13), (16.4, 18.0), (17.6, 27.0), (27.3, 30.7), (25.0, 11.8), (7.15, 11.15), (9.13, 23.13)], [(11.0, 19.6), (23.0, 30.4), (27.2, 12.0), (5.58, 14.42), (16.8, 18.0), (17.2, 27.0), (27.02, 30.98), (25.0, 12.2), (6.87, 10.87), (9.41, 23.42)], [(11.0, 20.0), (23.0, 30.0), (26.8, 12.0), (5.3, 14.7), (17.2, 18.0), (16.8, 27.0), (26.74, 31.26), (25.0, 12.6), (6.58, 10.58), (9.7, 23.7)], [(11.0, 20.4), (23.0, 29.6), (26.4, 12.0), (5.02, 14.98), (17.6, 18.0), (16.4, 27.0), (26.45, 31.55), (25.0, 13.0), (6.3, 10.3), (9.98, 23.98)], [(11.0, 20.8), (23.0, 29.2), (26.0, 12.0), (4.74, 15.26), (18.0, 18.0), (16.0, 27.0), (26.17, 31.83), (25.0, 13.4), (6.02, 10.02), (10.26, 24.26)], [(11.0, 21.2), (23.0, 28.8), (26.0, 12.4), (4.45, 15.55), (18.0, 17.6), (15.6, 27.0), (25.89, 31.55), (25.0, 13.8), (5.74, 9.74), (10.55, 24.55)], [(11.0, 21.6), (23.0, 28.4), (26.0, 12.8), (4.17, 15.83), (18.0, 17.2), (15.2, 27.0), (25.6, 31.26), (25.0, 14.2), (5.45, 9.45), (10.83, 24.83)], [(11.0, 22.0), (23.0, 28.0), (26.0, 13.2), (4.17, 16.23), (18.0, 16.8), (14.8, 27.0), (25.32, 30.98), (25.0, 14.6), (5.17, 9.17), (10.83, 25.23)], [(10.72, 22.28), (23.28, 28.28), (26.0, 13.6), (4.17, 16.63), (18.0, 16.4), (14.4, 27.0), (25.04, 30.7), (25.0, 15.0), (5.57, 9.17), (10.83, 25.63)], [(10.43, 22.57), (23.57, 28.57), (26.0, 14.0), (4.17, 17.03), (18.0, 16.0), (14.0, 27.0), (24.76, 30.42), (25.28, 14.72), (5.97, 9.17), (10.83, 26.03)], [(10.15, 22.85), (23.85, 28.85), (26.0, 14.4), (4.17, 17.43), (18.0, 15.6), (13.72, 26.72), (24.47, 30.13), (25.57, 14.43), (6.37, 9.17), (10.83, 26.43)], [(9.87, 23.13), (24.13, 29.13), (26.0, 14.8), (4.17, 17.83), (18.0, 15.2), (13.43, 26.43), (24.19, 29.85), (25.85, 14.15), (6.77, 9.17), (10.83, 26.83)]]","[(28.0, 12.0), (27.6, 12.0), (27.2, 12.0), (26.8, 12.0), (26.4, 12.0), (26.0, 12.0), (26.0, 12.4), (26.0, 12.8), (26.0, 13.2), (26.0, 13.6), (26.0, 14.0), (26.0, 14.4), (26.0, 14.8)]",205.32,,,2.069
dynamic task,kh8_dt4,3,0,0,0,1,1.5541467022221696,10,"[[(6.0, 23.4), (12.0, 3.0), (20.28, 24.28), (20.28, 9.28), (19.6, 23.0), (15.72, 26.72), (27.0, 4.0), (3.28, 18.28), (23.57, 27.57), (13.57, 10.57)], [(6.0, 23.8), (12.4, 3.0), (20.57, 24.57), (20.57, 9.57), (20.0, 23.0), (15.43, 26.43), (27.0, 4.4), (3.57, 18.57), (23.85, 27.85), (13.85, 10.85)], [(6.0, 24.2), (12.8, 3.0), (20.85, 24.85), (20.85, 9.85), (20.4, 23.0), (15.15, 26.15), (27.0, 4.8), (3.85, 18.85), (24.13, 28.13), (14.13, 11.13)], [(6.0, 24.6), (13.2, 3.0), (21.13, 25.13), (21.13, 10.13), (20.8, 23.0), (14.87, 25.87), (27.0, 5.2), (4.13, 19.13), (24.42, 28.42), (14.42, 11.42)], [(6.0, 25.0), (13.6, 3.0), (21.42, 25.42), (21.42, 10.42), (21.2, 23.0), (14.58, 25.58), (27.0, 5.6), (4.42, 19.42), (24.7, 28.7), (14.7, 11.7)], [(6.0, 25.4), (14.0, 3.0), (21.7, 25.7), (21.7, 10.7), (21.6, 23.0), (14.3, 25.3), (27.0, 6.0), (4.7, 19.7), (24.98, 28.98), (14.98, 11.98)], [(6.0, 25.8), (13.72, 3.28), (21.98, 25.98), (21.98, 10.98), (22.0, 23.0), (14.02, 25.02), (27.28, 6.28), (4.98, 19.98), (25.26, 29.26), (15.26, 12.26)], [(6.0, 26.2), (13.43, 3.57), (22.26, 26.26), (22.26, 11.26), (21.72, 23.28), (13.74, 24.74), (27.57, 6.57), (5.26, 20.26), (25.55, 29.55), (15.55, 12.55)], [(6.0, 26.6), (13.15, 3.85), (22.55, 26.55), (22.55, 11.55), (21.43, 23.57), (13.45, 24.45), (27.85, 6.85), (5.55, 20.55), (25.83, 29.83), (15.83, 12.83)], [(6.0, 27.0), (12.87, 4.13), (22.83, 26.83), (22.83, 11.83), (21.15, 23.85), (13.17, 24.17), (28.13, 7.13), (5.83, 20.83), (25.83, 29.43), (16.11, 12.55)], [(5.6, 27.0), (12.58, 4.42), (22.83, 26.43), (22.83, 11.43), (20.87, 24.13), (13.17, 23.77), (28.42, 7.42), (5.83, 21.23), (25.83, 29.03), (16.4, 12.26)], [(5.2, 27.0), (12.3, 4.7), (22.83, 26.03), (22.83, 11.03), (20.58, 24.42), (13.17, 23.37), (28.7, 7.7), (5.83, 21.63), (25.83, 28.63), (16.68, 11.98)], [(4.8, 27.0), (12.02, 4.98), (22.83, 25.63), (22.83, 10.63), (20.3, 24.7), (13.17, 22.97), (28.98, 7.98), (5.83, 22.03), (25.83, 28.23), (16.96, 11.7)], [(4.4, 27.0), (11.74, 5.26), (22.83, 25.23), (22.83, 10.23), (20.02, 24.98), (13.17, 22.57), (29.26, 8.26), (5.83, 22.43), (25.83, 27.83), (17.24, 11.42)], [(4.0, 27.0), (11.45, 5.55), (22.83, 24.83), (22.83, 9.83), (19.74, 25.26), (13.17, 22.17), (29.55, 8.55), (5.83, 22.83), (25.83, 27.43), (17.53, 11.13)], [(3.6, 27.0), (11.17, 5.83), (22.83, 24.43), (22.83, 9.43), (19.45, 25.55), (13.17, 21.77), (29.83, 8.83), (5.83, 23.23), (25.83, 27.03), (17.81, 10.85)], [(3.2, 27.0), (11.45, 6.11), (22.83, 24.03), (22.83, 9.03), (19.17, 25.83), (13.17, 21.37), (29.43, 8.83), (5.83, 23.63), (25.83, 26.63), (18.09, 10.57)], [(2.8, 27.0), (11.74, 6.4), (22.83, 23.63), (22.83, 8.63), (18.89, 26.11), (13.17, 20.97), (29.03, 8.83), (5.83, 24.03), (25.83, 26.23), (18.38, 10.28)], [(2.4, 27.0), (12.02, 6.68), (22.83, 23.23), (22.83, 8.23), (18.6, 26.4), (13.17, 20.57), (28.63, 8.83), (5.83, 24.43), (25.83, 25.83), (18.66, 10.0)], [(2.0, 27.0), (12.3, 6.96), (22.83, 22.83), (22.83, 7.83), (18.32, 26.68), (13.17, 20.17), (28.23, 8.83), (5.83, 24.83), (25.83, 25.43), (18.94, 9.72)], [(2.28, 27.28), (12.58, 7.24), (23.11, 23.11), (23.11, 8.11), (18.04, 26.96), (13.45, 20.45), (27.83, 8.83), (5.83, 25.23), (25.83, 25.03), (19.23, 9.43)], [(2.57, 27.57), (12.87, 7.53), (23.4, 23.4), (23.4, 8.4), (17.76, 27.24), (13.74, 20.74), (27.43, 8.83), (5.83, 25.63), (25.83, 24.63), (19.51, 9.15)], [(2.85, 27.85), (13.15, 7.81), (23.68, 23.68), (23.68, 8.68), (17.47, 27.53), (14.02, 21.02), (27.03, 8.83), (5.83, 26.03), (25.83, 24.23), (19.79, 8.87)], [(3.13, 28.13), (13.43, 8.09), (23.96, 23.96), (23.96, 8.96), (17.19, 27.81), (14.3, 21.3), (26.63, 8.83), (5.83, 26.43), (25.83, 23.83), (20.08, 8.59)], [(3.42, 28.42), (13.72, 8.38), (24.24, 24.24), (24.24, 9.25), (16.91, 28.09), (14.58, 21.58), (26.23, 8.83), (5.83, 26.83), (25.83, 23.43), (20.36, 8.3)], [(3.7, 28.7), (14.0, 8.66), (24.53, 24.53), (24.53, 9.53), (16.62, 28.38), (14.87, 21.87), (25.83, 8.83), (5.83, 27.23), (25.83, 23.03), (20.64, 8.02)], [(3.98, 28.98), (14.28, 8.38), (24.81, 24.81), (24.81, 9.81), (16.34, 28.66), (15.15, 22.15), (25.83, 8.43), (5.83, 27.63), (25.83, 22.63), (20.92, 7.74)], [(4.26, 29.26), (14.57, 8.09), (25.09, 25.09), (25.09, 10.09), (16.06, 28.94), (15.43, 22.43), (25.83, 8.03), (5.83, 28.03), (25.83, 22.23), (21.21, 7.45)], [(4.55, 29.55), (14.85, 7.81), (25.38, 25.38), (25.38, 10.38), (15.77, 29.23), (15.72, 22.72), (25.83, 7.63), (5.83, 28.43), (25.83, 21.83), (21.49, 7.17)]]",,0.0,,,0.79
dynamic task,kh8_dt4,4,0,0,0,1,1.3470765511110585,10,"[[(30.43, 20.43), (15.58, 29.58), (16.0, 9.6), (7.72, 20.72), (11.6, 8.0), (31.72, 8.72), (20.0, 14.6), (10.42, 12.42), (29.42, 29.42), (31.2, 7.0)], [(30.15, 20.15), (15.3, 29.3), (16.0, 9.2), (7.43, 20.43), (11.2, 8.0), (31.43, 8.43), (20.0, 14.2), (10.7, 12.7), (29.7, 29.7), (30.8, 7.0)], [(29.87, 19.87), (15.02, 29.02), (16.0, 8.8), (7.15, 20.15), (10.8, 8.0), (31.15, 8.15), (20.0, 13.8), (10.98, 12.98), (29.98, 29.98), (30.4, 7.0)], [(29.58, 19.58), (14.74, 28.74), (16.0, 8.4), (6.87, 19.87), (10.4, 8.0), (30.87, 7.87), (20.0, 13.4), (11.26, 13.26), (30.26, 30.26), (30.0, 7.0)], [(29.3, 19.3), (14.45, 28.45), (16.0, 8.0), (6.58, 19.58), (10.0, 8.0), (30.58, 7.58), (20.0, 13.0), (11.55, 13.55), (30.55, 30.55), (29.6, 7.0)], [(29.02, 19.02), (14.17, 28.17), (16.0, 7.6), (6.3, 19.3), (9.6, 8.0), (30.3, 7.3), (20.0, 12.6), (11.83, 13.83), (30.83, 30.83), (29.2, 7.0)], [(28.74, 18.74), (13.77, 28.17), (16.0, 7.2), (6.02, 19.02), (9.2, 8.0), (30.02, 7.02), (20.0, 12.2), (12.11, 13.55), (30.83, 30.43), (28.8, 7.0)], [(28.45, 18.45), (13.37, 28.17), (16.0, 6.8), (5.74, 18.74), (8.8, 8.0), (29.74, 6.74), (20.0, 11.8), (12.4, 13.26), (30.83, 30.03), (28.4, 7.0)], [(28.17, 18.17), (12.97, 28.17), (16.0, 6.4), (5.45, 18.45), (8.4, 8.0), (29.45, 6.45), (20.0, 11.4), (12.68, 12.98), (30.83, 29.63), (28.0, 7.0)], [(28.17, 18.57), (12.57, 28.17), (16.0, 6.0), (5.17, 18.17), (8.0, 8.0), (29.17, 6.17), (20.0, 11.0), (12.96, 12.7), (30.83, 29.23), (27.6, 7.0)], [(28.17, 18.97), (12.17, 28.17), (15.72, 6.28), (5.57, 18.17), (8.28, 8.28), (28.77, 6.17), (19.72, 10.72), (13.24, 12.42), (30.83, 28.83), (27.2, 7.0)], [(28.17, 19.37), (11.77, 28.17), (15.43, 6.57), (5.97, 18.17), (8.57, 8.57), (28.37, 6.17), (19.43, 10.43), (13.53, 12.13), (30.83, 28.43), (26.8, 7.0)], [(28.17, 19.77), (11.37, 28.17), (15.15, 6.85), (6.37, 18.17), (8.85, 8.85), (27.97, 6.17), (19.15, 10.15), (13.81, 11.85), (30.83, 28.03), (26.4, 7.0)], [(28.17, 20.17), (10.97, 28.17), (14.87, 7.13), (6.77, 18.17), (9.13, 9.13), (27.57, 6.17), (18.87, 9.87), (14.09, 11.57), (30.83, 27.63), (26.0, 7.0)], [(28.17, 20.57), (10.57, 28.17), (14.58, 7.42), (7.17, 18.17), (9.41, 9.41), (27.17, 6.17), (18.58, 9.59), (14.38, 11.28), (30.83, 27.23), (25.6, 7.0)], [(28.17, 20.97), (10.17, 28.17), (14.3, 7.7), (7.57, 18.17), (9.7, 9.7), (26.77, 6.17), (18.3, 9.3), (14.66, 11.0), (30.83, 26.83), (25.2, 7.0)], [(28.17, 21.37), (10.45, 27.89), (14.02, 7.98), (7.97, 18.17), (9.98, 9.98), (26.37, 6.17), (18.02, 9.02), (14.66, 10.6), (30.43, 26.83), (24.8, 7.0)], [(28.17, 21.77), (10.74, 27.6), (13.74, 8.26), (8.37, 18.17), (10.26, 10.26), (25.97, 6.17), (17.74, 8.74), (14.66, 10.2), (30.03, 26.83), (24.4, 7.0)], [(28.17, 22.17), (11.02, 27.32), (13.45, 8.55), (8.77, 18.17), (10.55, 10.55), (25.57, 6.17), (17.45, 8.45), (14.66, 9.8), (29.63, 26.83), (24.0, 7.0)], [(27.89, 21.89), (11.3, 27.04), (13.17, 8.83), (9.17, 18.17), (10.83, 10.83), (25.17, 6.17), (17.17, 8.17), (14.66, 9.4), (29.23, 26.83), (23.72, 6.72)], [(27.6, 21.6), (11.58, 26.76), (12.89, 8.55), (9.17, 17.77), (11.11, 10.55), (24.89, 5.89), (16.89, 8.45), (14.66, 9.0), (28.83, 26.83), (23.43, 6.43)], [(27.32, 21.32), (11.87, 26.47), (12.6, 8.26), (9.17, 17.37), (11.4, 10.26), (24.6, 5.6), (16.6, 8.74), (14.66, 8.6), (28.43, 26.83), (23.15, 6.15)], [(27.04, 21.04), (12.15, 26.19), (12.32, 7.98), (9.17, 16.97), (11.68, 9.98), (24.32, 5.32), (16.32, 9.02), (14.66, 8.2), (28.03, 26.83), (22.87, 5.87)], [(26.76, 20.76), (12.43, 25.91), (12.04, 7.7), (9.17, 16.57), (11.96, 9.7), (24.04, 5.04), (16.04, 9.3), (14.66, 7.8), (27.63, 26.83), (22.58, 5.58)], [(26.47, 20.47), (12.72, 25.62), (11.76, 7.42), (9.17, 16.17), (12.24, 9.41), (23.76, 4.76), (15.76, 9.59), (14.66, 7.4), (27.23, 26.83), (22.3, 5.3)]]",,0.0,,,1.871
dynamic task,kh8_dt4,5,0,0,0,1,1.4375549155556655,10,"[[(29.87, 29.87), (30.0, 29.0), (13.0, 16.0), (2.0, 20.0), (11.57, 25.43), (18.0, 22.0), (6.0, 10.0), (4.8, 30.0), (22.42, 29.58), (26.0, 6.0)], [(29.58, 29.58), (30.0, 28.6), (13.28, 15.72), (2.0, 20.4), (11.85, 25.15), (17.6, 22.0), (6.0, 10.4), (5.2, 30.0), (22.7, 29.3), (25.6, 6.0)], [(29.3, 29.3), (30.0, 28.2), (13.57, 15.43), (2.0, 20.8), (12.13, 24.87), (17.2, 22.0), (6.0, 10.8), (5.6, 30.0), (22.98, 29.02), (25.2, 6.0)], [(29.02, 29.02), (30.0, 27.8), (13.85, 15.15), (2.0, 21.2), (12.42, 24.58), (16.8, 22.0), (6.0, 11.2), (6.0, 30.0), (23.26, 28.74), (24.8, 6.0)], [(28.74, 28.74), (30.0, 27.4), (14.13, 14.87), (2.0, 21.6), (12.7, 24.3), (16.4, 22.0), (6.0, 11.6), (6.4, 30.0), (23.55, 28.45), (24.4, 6.0)], [(28.45, 28.45), (30.0, 27.0), (14.42, 14.58), (2.0, 22.0), (12.98, 24.02), (16.0, 22.0), (6.0, 12.0), (6.8, 30.0), (23.83, 28.17), (24.0, 6.0)], [(28.17, 28.17), (30.0, 26.6), (14.7, 14.3), (2.0, 22.4), (13.26, 23.74), (16.0, 22.4), (5.6, 12.0), (7.2, 30.0), (24.11, 28.45), (23.72, 5.72)], [(27.77, 28.17), (30.0, 26.2), (14.98, 14.02), (2.0, 22.8), (13.55, 23.45), (16.0, 22.8), (5.2, 12.0), (7.6, 30.0), (24.4, 28.74), (23.43, 5.43)], [(27.37, 28.17), (30.0, 25.8), (15.26, 13.74), (2.0, 23.2), (13.83, 23.17), (16.0, 23.2), (4.8, 12.0), (8.0, 30.0), (24.68, 29.02), (23.15, 5.15)], [(26.97, 28.17), (30.0, 25.4), (15.55, 13.45), (2.0, 23.6), (13.43, 23.17), (16.0, 23.6), (4.4, 12.0), (7.72, 29.72), (24.96, 29.3), (22.87, 4.87)], [(26.57, 28.17), (30.0, 25.0), (15.83, 13.17), (2.0, 24.0), (13.03, 23.17), (16.0, 24.0), (4.0, 12.0), (7.43, 29.43), (25.24, 29.58), (22.58, 4.58)], [(26.17, 28.17), (29.72, 24.72), (16.11, 12.89), (2.28, 24.28), (12.63, 23.17), (16.0, 24.4), (3.6, 12.0), (7.15, 29.15), (25.53, 29.87), (22.3, 4.3)], [(25.77, 28.17), (29.43, 24.43), (16.4, 12.6), (2.57, 24.57), (12.23, 23.17), (16.0, 24.8), (3.2, 12.0), (6.87, 28.87), (25.81, 30.15), (22.02, 4.02)], [(25.37, 28.17), (29.15, 24.15), (16.68, 12.32), (2.85, 24.85), (11.83, 23.17), (16.0, 25.2), (2.8, 12.0), (6.58, 28.58), (26.09, 30.43), (21.74, 3.74)], [(24.97, 28.17), (28.87, 23.87), (16.96, 12.04), (3.13, 25.13), (11.43, 23.17), (16.0, 25.6), (2.4, 12.0), (6.3, 28.3), (26.38, 30.72), (21.45, 3.45)], [(24.57, 28.17), (28.58, 23.58), (17.24, 11.76), (3.42, 25.42), (11.03, 23.17), (16.0, 26.0), (2.0, 12.0), (6.02, 28.02), (26.66, 31.0), (21.17, 3.17)], [(24.17, 28.17), (28.3, 23.3), (17.53, 11.47), (3.7, 25.7), (10.63, 23.17), (16.4, 26.0), (2.0, 12.4), (5.74, 27.74), (27.06, 31.0), (20.89, 3.45)], [(24.45, 28.45), (28.02, 23.02), (17.81, 11.19), (3.98, 25.98), (10.23, 23.17), (16.8, 26.0), (2.0, 12.8), (5.45, 27.45), (27.46, 31.0), (20.6, 3.74)], [(24.74, 28.74), (27.74, 22.74), (18.09, 10.91), (4.26, 26.26), (9.83, 23.17), (17.2, 26.0), (2.0, 13.2), (5.17, 27.17), (27.86, 31.0), (20.32, 4.02)], [(25.02, 29.02), (27.45, 22.45), (18.38, 10.62), (4.55, 26.55), (9.55, 23.45), (17.6, 26.0), (2.0, 13.6), (5.45, 26.89), (28.26, 31.0), (20.04, 4.3)], [(25.3, 29.3), (27.17, 22.17), (18.66, 10.34), (4.83, 26.83), (9.26, 23.74), (18.0, 26.0), (2.0, 14.0), (5.74, 26.6), (28.66, 31.0), (19.76, 4.58)], [(25.58, 29.58), (27.45, 21.89), (18.26, 10.34), (4.83, 27.23), (8.98, 24.02), (18.4, 26.0), (2.0, 14.4), (6.02, 26.32), (29.06, 31.0), (19.47, 4.87)], [(25.87, 29.87), (27.74, 21.6), (17.86, 10.34), (4.83, 27.63), (8.7, 24.3), (18.8, 26.0), (2.0, 14.8), (6.3, 26.04), (29.46, 31.0), (19.19, 5.15)], [(26.15, 30.15), (28.02, 21.32), (17.46, 10.34), (4.83, 28.03), (8.41, 24.58), (19.2, 26.0), (2.0, 15.2), (6.58, 25.76), (29.86, 31.0), (18.91, 5.43)], [(26.43, 30.43), (28.3, 21.04), (17.06, 10.34), (4.83, 28.43), (8.13, 24.87), (19.6, 26.0), (2.0, 15.6), (6.87, 25.47), (30.26, 31.0), (18.62, 5.72)], [(26.72, 30.72), (28.58, 20.76), (16.66, 10.34), (4.83, 28.83), (7.85, 25.15), (20.0, 26.0), (2.0, 16.0), (7.15, 25.19), (30.66, 31.0), (18.34, 6.0)], [(27.0, 31.0), (28.87, 20.47), (16.26, 10.34), (4.83, 29.23), (7.57, 25.43), (19.72, 26.28), (2.28, 16.28), (7.43, 24.91), (30.66, 30.6), (18.06, 5.72)]]",,0.0,,,2.388
dynamic task,kh8_dt4,6,1,0,1,1,0.9792256000000634,10,"[[(11.0, 32.0), (25.8, 18.0), (8.87, 24.87), (15.13, 5.13), (26.0, 7.8), (10.0, 31.2), (14.2, 5.0), (29.13, 21.87), (27.85, 24.85), (24.13, 25.87)], [(11.28, 31.72), (26.2, 18.0), (8.59, 24.58), (15.42, 5.42), (26.0, 8.2), (10.0, 30.8), (14.6, 5.0), (29.42, 21.58), (28.13, 25.13), (24.42, 25.58)], [(11.57, 31.43), (26.6, 18.0), (8.3, 24.3), (15.7, 5.7), (26.0, 8.6), (10.0, 30.4), (15.0, 5.0), (29.7, 21.3), (28.42, 25.42), (24.7, 25.3)], [(11.85, 31.15), (27.0, 18.0), (8.02, 24.02), (15.98, 5.98), (26.0, 9.0), (10.0, 30.0), (15.4, 5.0), (29.98, 21.02), (28.7, 25.7), (24.98, 25.02)], [(12.13, 30.87), (27.4, 18.0), (7.74, 23.74), (16.26, 6.26), (26.0, 9.4), (10.0, 29.6), (15.8, 5.0), (30.26, 20.74), (28.98, 25.98), (25.26, 24.74)], [(12.42, 30.58), (27.8, 18.0), (7.45, 23.45), (16.55, 6.55), (26.0, 9.8), (10.0, 29.2), (16.2, 5.0), (30.55, 20.45), (29.26, 26.26), (25.55, 24.45)], [(12.7, 30.3), (28.2, 18.0), (7.17, 23.17), (16.83, 6.83), (26.0, 10.2), (10.0, 28.8), (16.6, 5.0), (30.83, 20.17), (29.55, 26.55), (25.83, 24.17)], [(12.98, 30.02), (28.6, 18.0), (7.17, 23.57), (16.43, 6.83), (26.0, 10.6), (10.0, 28.4), (17.0, 5.0), (30.43, 20.17), (29.83, 26.83), (25.83, 23.77)], [(13.26, 29.74), (29.0, 18.0), (7.17, 23.97), (16.03, 6.83), (26.0, 11.0), (10.0, 28.0), (17.0, 5.4), (30.03, 20.17), (29.43, 26.83), (25.83, 23.37)], [(13.55, 29.45), (28.72, 18.28), (7.17, 24.37), (15.63, 6.83), (26.28, 10.72), (10.28, 28.28), (17.0, 5.8), (29.63, 20.17), (29.03, 26.83), (25.83, 22.97)], [(13.83, 29.17), (28.43, 18.57), (7.17, 24.77), (15.23, 6.83), (26.57, 10.43), (10.57, 28.57), (17.0, 6.2), (29.23, 20.17), (28.63, 26.83), (25.83, 22.57)], [(13.43, 29.17), (28.15, 18.85), (7.17, 25.17), (14.83, 6.83), (26.85, 10.15), (10.85, 28.85), (17.0, 6.6), (28.83, 20.17), (28.23, 26.83), (25.83, 22.17)], [(13.03, 29.17), (27.87, 19.13), (7.17, 25.57), (14.43, 6.83), (27.13, 9.87), (11.13, 29.13), (17.0, 7.0), (28.43, 20.17), (27.83, 26.83), (25.83, 21.77)], [(12.63, 29.17), (27.58, 19.42), (7.17, 25.97), (14.03, 6.83), (27.42, 9.59), (11.42, 29.42), (17.0, 7.4), (28.03, 20.17), (27.43, 26.83), (25.83, 21.37)], [(12.23, 29.17), (27.3, 19.7), (7.17, 26.37), (13.63, 6.83), (27.7, 9.3), (11.7, 29.7), (17.0, 7.8), (27.63, 20.17), (27.03, 26.83), (25.83, 20.97)], [(11.83, 29.17), (27.02, 19.98), (7.17, 26.77), (13.23, 6.83), (27.98, 9.02), (11.98, 29.98), (17.0, 8.2), (27.23, 20.17), (26.63, 26.83), (25.83, 20.57)], [(11.43, 29.17), (26.74, 20.26), (7.17, 27.17), (12.83, 6.83), (28.26, 8.74), (12.26, 30.26), (17.0, 8.6), (26.83, 20.17), (26.23, 26.83), (25.83, 20.17)]]","[(29.13, 21.87), (29.42, 21.58), (29.7, 21.3), (29.98, 21.02), (30.26, 20.74), (30.55, 20.45), (30.83, 20.17), (30.43, 20.17), (30.03, 20.17), (29.63, 20.17), (29.23, 20.17), (28.83, 20.17), (28.43, 20.17), (28.03, 20.17), (27.63, 20.17), (27.23, 20.17), (26.83, 20.17)]",221.62,,,1.686
dynamic task,kh8_dt4,7,0,0,0,1,0.8256085333332521,10,"[[(20.0, 19.6), (22.4, 31.0), (10.0, 32.0), (14.0, 27.0), (16.58, 17.58), (28.0, 24.0), (7.0, 13.0), (28.72, 7.28), (29.0, 29.8), (30.72, 18.28)], [(20.0, 20.0), (22.0, 31.0), (10.0, 31.6), (14.4, 27.0), (16.3, 17.3), (28.0, 24.4), (7.0, 13.4), (28.43, 7.57), (29.0, 29.4), (30.43, 18.57)], [(20.0, 20.4), (21.6, 31.0), (10.0, 31.2), (14.8, 27.0), (16.02, 17.02), (28.0, 24.8), (7.0, 13.8), (28.15, 7.85), (29.0, 29.0), (30.15, 18.85)], [(20.0, 20.8), (21.2, 31.0), (10.0, 30.8), (15.2, 27.0), (15.74, 16.74), (28.0, 25.2), (7.0, 14.2), (27.87, 8.13), (29.0, 28.6), (29.87, 19.13)], [(20.0, 21.2), (20.8, 31.0), (10.0, 30.4), (15.6, 27.0), (15.45, 16.45), (28.0, 25.6), (7.0, 14.6), (27.58, 8.41), (29.0, 28.2), (29.58, 19.42)], [(20.0, 21.6), (20.4, 31.0), (10.0, 30.0), (16.0, 27.0), (15.17, 16.17), (28.0, 26.0), (7.0, 15.0), (27.3, 8.7), (29.0, 27.8), (29.3, 19.7)], [(20.0, 22.0), (20.0, 31.0), (10.0, 29.6), (16.4, 27.0), (15.57, 16.17), (28.4, 26.0), (7.0, 15.4), (27.02, 8.98), (29.0, 27.4), (29.02, 19.98)], [(19.6, 22.0), (20.0, 30.6), (10.0, 29.2), (16.8, 27.0), (15.97, 16.17), (28.8, 26.0), (7.0, 15.8), (26.74, 9.26), (29.0, 27.0), (28.74, 20.26)], [(19.2, 22.0), (20.0, 30.2), (10.0, 28.8), (17.2, 27.0), (16.37, 16.17), (29.2, 26.0), (7.0, 16.2), (26.45, 9.55), (28.72, 27.28), (28.45, 20.55)], [(18.8, 22.0), (20.0, 29.8), (10.0, 28.4), (17.6, 27.0), (16.77, 16.17), (29.6, 26.0), (7.0, 16.6), (26.17, 9.83), (28.43, 27.57), (28.17, 20.83)], [(18.4, 22.0), (20.0, 29.4), (10.0, 28.0), (18.0, 27.0), (17.17, 16.17), (30.0, 26.0), (7.0, 17.0), (25.89, 9.55), (28.15, 27.85), (28.45, 21.11)], [(18.0, 22.0), (20.0, 29.0), (10.28, 27.72), (18.0, 26.6), (17.57, 16.17), (30.4, 26.0), (6.6, 17.0), (25.6, 9.26), (27.87, 28.13), (28.74, 21.4)], [(17.6, 22.0), (20.0, 28.6), (10.57, 27.43), (18.0, 26.2), (17.97, 16.17), (30.8, 26.0), (6.2, 17.0), (25.32, 8.98), (27.58, 28.42), (29.02, 21.68)], [(17.2, 22.0), (20.0, 28.2), (10.85, 27.15), (18.0, 25.8), (18.37, 16.17), (31.2, 26.0), (5.8, 17.0), (25.04, 8.7), (27.3, 28.7), (29.3, 21.96)]]",,0.0,,,1.12
dynamic task,kh8_dt4,8,1,0,1,1,0.7341323377777371,10,"[[(16.28, 19.28), (16.0, 21.0), (25.0, 17.0), (24.6, 22.0), (21.6, 11.0), (17.4, 10.0), (25.6, 10.0), (20.72, 13.72), (29.0, 9.0), (24.8, 8.0)], [(16.57, 19.57), (16.28, 20.72), (25.0, 17.4), (24.2, 22.0), (22.0, 11.0), (17.8, 10.0), (26.0, 10.0), (20.43, 13.43), (29.0, 9.4), (25.2, 8.0)], [(16.85, 19.85), (16.57, 20.43), (25.0, 17.8), (23.8, 22.0), (22.4, 11.0), (18.2, 10.0), (26.4, 10.0), (20.15, 13.15), (29.0, 9.8), (25.6, 8.0)], [(17.13, 20.13), (16.85, 20.15), (25.0, 18.2), (23.4, 22.0), (22.8, 11.0), (18.6, 10.0), (26.8, 10.0), (19.87, 12.87), (29.0, 10.2), (26.0, 8.0)], [(17.42, 20.42), (17.13, 19.87), (25.0, 18.6), (23.0, 22.0), (23.2, 11.0), (19.0, 10.0), (27.2, 10.0), (19.58, 12.58), (29.0, 10.6), (26.4, 8.0)], [(17.7, 20.7), (17.42, 19.58), (25.0, 19.0), (22.6, 22.0), (23.6, 11.0), (19.4, 10.0), (27.6, 10.0), (19.3, 12.3), (29.0, 11.0), (26.8, 8.0)], [(17.98, 20.98), (17.7, 19.3), (25.28, 19.28), (22.2, 22.0), (24.0, 11.0), (19.8, 10.0), (28.0, 10.0), (19.02, 12.02), (29.28, 10.72), (27.2, 8.0)], [(18.26, 21.26), (17.98, 19.02), (25.57, 19.57), (21.8, 22.0), (24.4, 11.0), (20.2, 10.0), (28.0, 10.4), (18.74, 11.74), (29.57, 10.43), (27.6, 8.0)], [(18.55, 21.55), (18.26, 18.74), (25.85, 19.85), (21.4, 22.0), (24.8, 11.0), (20.6, 10.0), (28.0, 10.8), (18.45, 11.45), (29.85, 10.15), (28.0, 8.0)], [(18.83, 21.83), (18.55, 18.45), (26.13, 20.13), (21.0, 22.0), (25.2, 11.0), (21.0, 10.0), (28.0, 11.2), (18.17, 11.17), (30.13, 9.87), (27.72, 7.72)], [(19.11, 21.55), (18.83, 18.17), (26.42, 20.42), (21.0, 22.4), (25.6, 11.0), (21.28, 10.28), (28.0, 11.6), (17.77, 11.17), (30.42, 9.59), (27.43, 7.43)], [(19.4, 21.26), (19.11, 18.45), (26.7, 20.7), (21.0, 22.8), (26.0, 11.0), (21.57, 10.57), (28.0, 12.0), (17.37, 11.17), (30.7, 9.3), (27.15, 7.15)]]","[(21.6, 11.0), (22.0, 11.0), (22.4, 11.0), (22.8, 11.0), (23.2, 11.0), (23.6, 11.0), (24.0, 11.0), (24.4, 11.0), (24.8, 11.0), (25.2, 11.0), (25.6, 11.0), (26.0, 11.0)]",200.86,,,0.862
dynamic task,kh8_dt4,9,0,0,0,1,0.7783381333333637,10,"[[(5.0, 19.0), (22.0, 20.0), (7.13, 5.87), (14.72, 22.28), (28.87, 13.87), (23.0, 13.0), (13.4, 29.0), (20.0, 30.0), (22.0, 32.0), (22.6, 30.0)], [(5.0, 18.6), (22.0, 19.6), (7.42, 5.58), (14.43, 22.57), (28.58, 13.58), (23.28, 12.72), (13.0, 29.0), (19.72, 29.72), (21.6, 32.0), (23.0, 30.0)], [(5.0, 18.2), (22.0, 19.2), (7.7, 5.3), (14.15, 22.85), (28.3, 13.3), (23.57, 12.43), (12.6, 29.0), (19.43, 29.43), (21.2, 32.0), (23.4, 30.0)], [(5.0, 17.8), (22.0, 18.8), (7.98, 5.02), (13.87, 23.13), (28.02, 13.02), (23.85, 12.15), (12.2, 29.0), (19.15, 29.15), (20.8, 32.0), (23.8, 30.0)], [(5.0, 17.4), (22.0, 18.4), (8.26, 4.74), (13.58, 23.42), (27.74, 12.74), (24.13, 11.87), (11.8, 29.0), (18.87, 28.87), (20.4, 32.0), (24.2, 30.0)], [(5.0, 17.0), (22.0, 18.0), (8.55, 4.45), (13.3, 23.7), (27.45, 12.45), (24.42, 11.58), (11.4, 29.0), (18.58, 28.58), (20.0, 32.0), (24.6, 30.0)], [(5.0, 16.6), (22.0, 17.6), (8.83, 4.17), (13.02, 23.98), (27.17, 12.17), (24.7, 11.3), (11.0, 29.0), (18.3, 28.3), (19.6, 32.0), (25.0, 30.0)], [(5.0, 16.2), (22.0, 17.2), (9.23, 4.17), (12.74, 24.26), (27.17, 11.77), (24.98, 11.02), (10.72, 29.28), (18.02, 28.02), (19.2, 32.0), (25.4, 30.0)], [(5.0, 15.8), (22.0, 16.8), (9.63, 4.17), (12.45, 24.55), (27.17, 11.37), (25.26, 10.74), (10.43, 29.57), (17.74, 27.74), (18.8, 32.0), (25.8, 30.0)], [(5.0, 15.4), (22.0, 16.4), (10.03, 4.17), (12.17, 24.83), (27.17, 10.97), (25.55, 10.45), (10.15, 29.85), (17.45, 27.45), (18.4, 32.0), (26.2, 30.0)], [(5.0, 15.0), (22.0, 16.0), (10.43, 4.17), (12.17, 24.43), (27.17, 10.57), (25.83, 10.17), (9.87, 30.13), (17.17, 27.17), (18.0, 32.0), (26.6, 30.0)], [(5.28, 14.72), (21.6, 16.0), (10.83, 4.17), (12.17, 24.03), (27.17, 10.17), (25.83, 9.77), (9.59, 30.42), (17.17, 27.57), (17.72, 31.72), (27.0, 30.0)], [(5.57, 14.43), (21.2, 16.0), (11.23, 4.17), (12.17, 23.63), (27.17, 9.77), (25.83, 9.37), (9.3, 30.7), (17.17, 27.97), (17.43, 31.43), (27.4, 30.0)]]",,0.0,,,0.934
dynamic task,kh8_dt4,10,0,0,0,1,0.7824716799996168,10,"[[(21.4, 13.0), (9.15, 17.85), (14.28, 22.72), (17.8, 11.0), (3.0, 10.2), (25.0, 7.0), (13.72, 8.28), (22.2, 22.0), (4.6, 6.0), (21.85, 22.15)], [(21.8, 13.0), (8.87, 18.13), (14.57, 22.43), (18.2, 11.0), (3.0, 9.8), (25.4, 7.0), (13.43, 8.57), (22.6, 22.0), (5.0, 6.0), (22.13, 21.87)], [(22.2, 13.0), (8.59, 18.42), (14.85, 22.15), (18.6, 11.0), (3.0, 9.4), (25.8, 7.0), (13.15, 8.85), (23.0, 22.0), (5.4, 6.0), (22.42, 21.58)], [(22.6, 13.0), (8.3, 18.7), (15.13, 21.87), (19.0, 11.0), (3.0, 9.0), (26.2, 7.0), (12.87, 9.13), (23.4, 22.0), (5.8, 6.0), (22.7, 21.3)], [(23.0, 13.0), (8.02, 18.98), (15.42, 21.58), (19.4, 11.0), (3.0, 8.6), (26.6, 7.0), (12.58, 9.41), (23.8, 22.0), (6.2, 6.0), (22.98, 21.02)], [(23.4, 13.0), (7.74, 19.26), (15.7, 21.3), (19.8, 11.0), (3.0, 8.2), (27.0, 7.0), (12.3, 9.7), (24.2, 22.0), (6.6, 6.0), (23.26, 20.74)], [(23.8, 13.0), (7.45, 19.55), (15.98, 21.02), (20.2, 11.0), (3.0, 7.8), (27.4, 7.0), (12.02, 9.98), (24.6, 22.0), (7.0, 6.0), (23.55, 20.45)], [(24.2, 13.0), (7.17, 19.83), (16.26, 20.74), (20.6, 11.0), (3.0, 7.4), (27.8, 7.0), (11.74, 10.26), (25.0, 22.0), (7.28, 5.72), (23.83, 20.17)], [(24.6, 13.0), (6.89, 19.55), (16.55, 20.45), (21.0, 11.0), (3.0, 7.0), (28.2, 7.0), (11.45, 10.55), (25.4, 22.0), (7.57, 5.43), (23.43, 20.17)], [(25.0, 13.0), (6.6, 19.26), (16.83, 20.17), (21.28, 11.28), (3.28, 7.28), (28.6, 7.0), (11.17, 10.83), (25.8, 22.0), (7.85, 5.15), (23.03, 20.17)], [(24.72, 12.72), (6.32, 18.98), (16.43, 20.17), (21.57, 11.57), (3.57, 7.57), (29.0, 7.0), (11.17, 10.43), (26.2, 22.0), (8.13, 4.87), (22.63, 20.17)], [(24.43, 12.43), (6.04, 18.7), (16.03, 20.17), (21.85, 11.85), (3.85, 7.85), (29.28, 6.72), (11.17, 10.03), (26.6, 22.0), (8.41, 4.58), (22.23, 20.17)], [(24.15, 12.15), (5.76, 18.42), (15.63, 20.17), (22.13, 12.13), (4.13, 8.13), (29.57, 6.43), (11.17, 9.63), (27.0, 22.0), (8.7, 4.3), (21.83, 20.17)]]",,0.0,,,0.857
dynamic task,kh8_dt4,11,1,0,1,1,0.9058372266667902,10,"[[(3.0, 11.0), (7.28, 4.72), (31.0, 16.2), (12.0, 17.0), (15.0, 14.0), (20.58, 10.58), (5.0, 9.8), (10.0, 8.0), (12.58, 11.42), (30.43, 22.43)], [(3.0, 11.4), (7.57, 4.43), (31.0, 15.8), (11.6, 17.0), (15.28, 14.28), (20.3, 10.3), (5.0, 9.4), (9.6, 8.0), (12.3, 11.7), (30.15, 22.15)], [(3.0, 11.8), (7.85, 4.15), (31.0, 15.4), (11.2, 17.0), (15.57, 14.57), (20.02, 10.02), (5.0, 9.0), (9.2, 8.0), (12.02, 11.98), (29.87, 21.87)], [(3.0, 12.2), (8.13, 3.87), (31.0, 15.0), (10.8, 17.0), (15.85, 14.85), (19.74, 9.74), (5.0, 8.6), (8.8, 8.0), (11.74, 12.26), (29.58, 21.58)], [(3.0, 12.6), (8.41, 3.58), (31.0, 14.6), (10.4, 17.0), (16.13, 15.13), (19.45, 9.45), (5.0, 8.2), (8.4, 8.0), (11.45, 12.55), (29.3, 21.3)], [(3.0, 13.0), (8.7, 3.3), (31.0, 14.2), (10.0, 17.0), (16.42, 15.42), (19.17, 9.17), (5.0, 7.8), (8.0, 8.0), (11.17, 12.83), (29.02, 21.02)], [(3.0, 13.4), (8.98, 3.02), (31.0, 13.8), (10.0, 16.6), (16.7, 15.7), (19.17, 9.57), (5.0, 7.4), (8.28, 7.72), (11.17, 13.23), (28.74, 20.74)], [(3.0, 13.8), (9.26, 2.74), (31.0, 13.4), (10.0, 16.2), (16.98, 15.98), (19.17, 9.97), (5.0, 7.0), (8.57, 7.43), (11.17, 13.63), (28.45, 20.45)], [(3.0, 14.2), (9.55, 2.45), (31.0, 13.0), (10.0, 15.8), (17.26, 16.26), (19.17, 10.37), (5.0, 6.6), (8.85, 7.15), (11.17, 14.03), (28.17, 20.17)], [(3.0, 14.6), (9.83, 2.17), (30.6, 13.0), (10.0, 15.4), (17.55, 16.55), (19.17, 10.77), (5.0, 6.2), (9.13, 6.87), (11.17, 14.43), (27.89, 20.45)], [(3.0, 15.0), (9.83, 2.57), (30.2, 13.0), (10.0, 15.0), (17.83, 16.83), (19.17, 11.17), (5.0, 5.8), (9.41, 6.58), (11.17, 14.83), (27.6, 20.74)], [(3.28, 14.72), (9.83, 2.97), (29.8, 13.0), (10.0, 14.6), (18.23, 16.83), (19.17, 11.57), (5.0, 5.4), (9.7, 6.3), (11.17, 15.23), (27.32, 21.02)], [(3.57, 14.43), (9.83, 3.37), (29.4, 13.0), (10.0, 14.2), (18.63, 16.83), (19.17, 11.97), (5.0, 5.0), (9.98, 6.02), (11.17, 15.63), (27.04, 21.3)], [(3.85, 14.15), (9.83, 3.77), (29.0, 13.0), (10.0, 13.8), (19.03, 16.83), (19.17, 12.37), (5.0, 4.6), (10.26, 5.74), (11.17, 16.03), (26.76, 21.58)], [(4.13, 13.87), (9.83, 4.17), (28.6, 13.0), (10.0, 13.4), (19.43, 16.83), (19.17, 12.77), (5.0, 4.2), (10.55, 5.45), (11.17, 16.43), (26.47, 21.87)], [(4.42, 13.58), (9.83, 4.57), (28.2, 13.0), (10.0, 13.0), (19.83, 16.83), (19.17, 13.17), (5.0, 3.8), (10.83, 5.17), (11.17, 16.83), (26.19, 22.15)]]","[(12.0, 17.0), (11.6, 17.0), (11.2, 17.0), (10.8, 17.0), (10.4, 17.0), (10.0, 17.0), (10.0, 16.6), (10.0, 16.2), (10.0, 15.8), (10.0, 15.4), (10.0, 15.0), (10.0, 14.6), (10.0, 14.2), (10.0, 13.8), (10.0, 13.4), (10.0, 13.0)]",224.09,,,1.579
dynamic task,kh8_dt4,12,0,0,0,1,0.7657025422222432,10,"[[(26.0, 30.0), (4.0, 12.0), (24.58, 4.42), (22.0, 16.2), (26.0, 21.4), (26.0, 5.0), (18.0, 22.0), (14.87, 10.87), (20.0, 15.0), (29.72, 12.72)], [(25.6, 30.0), (4.0, 12.4), (24.3, 4.7), (22.0, 15.8), (26.0, 21.0), (26.28, 4.72), (17.6, 22.0), (14.58, 10.58), (19.6, 15.0), (29.43, 12.43)], [(25.2, 30.0), (4.0, 12.8), (24.02, 4.98), (22.0, 15.4), (26.0, 20.6), (26.57, 4.43), (17.2, 22.0), (14.3, 10.3), (19.2, 15.0), (29.15, 12.15)], [(24.8, 30.0), (4.0, 13.2), (23.74, 5.26), (22.0, 15.0), (26.0, 20.2), (26.85, 4.15), (16.8, 22.0), (14.02, 10.02), (18.8, 15.0), (28.87, 11.87)], [(24.4, 30.0), (4.0, 13.6), (23.45, 5.55), (22.0, 14.6), (26.0, 19.8), (27.13, 3.87), (16.4, 22.0), (13.74, 9.74), (18.4, 15.0), (28.58, 11.58)], [(24.0, 30.0), (4.0, 14.0), (23.17, 5.83), (22.0, 14.2), (26.0, 19.4), (27.42, 3.58), (16.0, 22.0), (13.45, 9.45), (18.0, 15.0), (28.3, 11.3)], [(24.0, 29.6), (4.0, 14.4), (23.17, 6.23), (22.0, 13.8), (26.0, 19.0), (27.7, 3.3), (15.6, 22.0), (13.17, 9.17), (17.72, 15.28), (28.02, 11.02)], [(24.0, 29.2), (4.0, 14.8), (23.17, 6.63), (22.0, 13.4), (26.4, 19.0), (27.98, 3.02), (15.2, 22.0), (12.89, 8.89), (17.43, 15.57), (27.74, 10.74)], [(24.0, 28.8), (4.0, 15.2), (23.17, 7.03), (22.0, 13.0), (26.8, 19.0), (28.26, 2.74), (14.8, 22.0), (12.6, 8.6), (17.15, 15.85), (27.45, 10.45)], [(24.0, 28.4), (4.0, 15.6), (23.17, 7.43), (22.0, 12.6), (27.2, 19.0), (28.55, 2.45), (14.4, 22.0), (12.32, 8.32), (16.87, 16.13), (27.17, 10.17)], [(24.0, 28.0), (4.0, 16.0), (23.17, 7.83), (22.0, 12.2), (27.6, 19.0), (28.83, 2.17), (14.0, 22.0), (12.04, 8.04), (16.58, 16.42), (27.17, 9.77)], [(24.0, 27.6), (4.0, 16.4), (23.17, 8.23), (22.0, 11.8), (28.0, 19.0), (29.11, 2.45), (13.72, 22.28), (11.76, 7.76), (16.3, 16.7), (27.17, 9.37)], [(24.0, 27.2), (4.0, 16.8), (23.17, 8.63), (22.0, 11.4), (28.4, 19.0), (29.4, 2.74), (13.43, 22.57), (11.47, 7.47), (16.02, 16.98), (27.17, 8.97)]]",,0.0,,,1.031
dynamic task,kh8_dt4,13,0,0,0,1,0.7385124977777195,10,"[[(3.28, 15.72), (15.4, 27.0), (25.0, 13.0), (9.0, 9.0), (30.0, 8.0), (26.28, 26.72), (17.85, 18.85), (4.8, 2.0), (11.57, 11.43), (20.0, 23.2)], [(3.57, 15.43), (15.0, 27.0), (25.4, 13.0), (9.28, 8.72), (30.0, 8.4), (26.57, 26.43), (18.13, 19.13), (4.4, 2.0), (11.85, 11.15), (20.0, 23.6)], [(3.85, 15.15), (14.6, 27.0), (25.8, 13.0), (9.57, 8.43), (30.0, 8.8), (26.85, 26.15), (18.42, 19.42), (4.0, 2.0), (12.13, 10.87), (20.0, 24.0)], [(4.13, 14.87), (14.2, 27.0), (26.2, 13.0), (9.85, 8.15), (30.0, 9.2), (27.13, 25.87), (18.7, 19.7), (3.6, 2.0), (12.42, 10.58), (20.0, 24.4)], [(4.42, 14.58), (13.8, 27.0), (26.6, 13.0), (10.13, 7.87), (30.0, 9.6), (27.42, 25.58), (18.98, 19.98), (3.2, 2.0), (12.7, 10.3), (20.0, 24.8)], [(4.7, 14.3), (13.4, 27.0), (27.0, 13.0), (10.42, 7.58), (30.0, 10.0), (27.7, 25.3), (19.26, 20.26), (2.8, 2.0), (12.98, 10.02), (20.0, 25.2)], [(4.98, 14.02), (13.0, 27.0), (26.72, 13.28), (10.7, 7.3), (30.28, 10.28), (27.98, 25.02), (19.55, 20.55), (2.4, 2.0), (13.26, 9.74), (20.0, 25.6)], [(5.26, 13.74), (13.0, 27.4), (26.43, 13.57), (10.98, 7.02), (30.57, 10.57), (28.26, 24.74), (19.83, 20.83), (2.0, 2.0), (13.55, 9.45), (20.0, 26.0)], [(5.55, 13.45), (13.0, 27.8), (26.15, 13.85), (11.26, 6.74), (30.85, 10.85), (28.55, 24.45), (20.11, 20.55), (2.0, 2.4), (13.83, 9.17), (20.28, 26.28)], [(5.83, 13.17), (13.0, 28.2), (25.87, 14.13), (11.55, 6.45), (31.13, 11.13), (28.83, 24.17), (20.4, 20.26), (2.0, 2.8), (14.23, 9.17), (20.57, 26.57)], [(5.83, 13.57), (13.0, 28.6), (25.58, 14.42), (11.83, 6.17), (31.42, 11.42), (29.11, 23.89), (20.68, 19.98), (2.0, 3.2), (14.63, 9.17), (20.85, 26.85)], [(5.83, 13.97), (13.0, 29.0), (25.3, 14.7), (11.43, 6.17), (31.7, 11.7), (29.4, 23.6), (20.96, 19.7), (2.0, 3.6), (15.03, 9.17), (21.13, 27.13)]]",,0.0,,,1.688
dynamic task,kh8_dt4,14,1,0,1,1,0.779135715555185,10,"[[(5.0, 22.0), (13.0, 24.0), (4.0, 4.0), (26.0, 28.4), (2.28, 25.72), (30.42, 17.42), (28.6, 6.0), (16.42, 3.58), (10.42, 21.42), (7.8, 11.0)], [(4.6, 22.0), (13.4, 24.0), (3.6, 4.0), (26.0, 28.0), (2.57, 25.43), (30.7, 17.7), (29.0, 6.0), (16.7, 3.3), (10.7, 21.7), (7.4, 11.0)], [(4.2, 22.0), (13.8, 24.0), (3.2, 4.0), (26.0, 27.6), (2.85, 25.15), (30.98, 17.98), (29.4, 6.0), (16.98, 3.02), (10.98, 21.98), (7.0, 11.0)], [(3.8, 22.0), (14.2, 24.0), (2.8, 4.0), (26.0, 27.2), (3.13, 24.87), (31.26, 18.26), (29.8, 6.0), (17.26, 2.74), (11.26, 22.26), (6.6, 11.0)], [(3.4, 22.0), (14.6, 24.0), (2.4, 4.0), (26.0, 26.8), (3.42, 24.58), (31.55, 18.55), (30.2, 6.0), (17.55, 2.45), (11.55, 22.55), (6.2, 11.0)], [(3.0, 22.0), (15.0, 24.0), (2.0, 4.0), (26.0, 26.4), (3.7, 24.3), (31.83, 18.83), (30.6, 6.0), (17.83, 2.17), (11.83, 22.83), (5.8, 11.0)], [(3.0, 22.4), (15.0, 24.4), (2.28, 4.28), (26.0, 26.0), (3.98, 24.02), (31.55, 19.11), (31.0, 6.0), (17.43, 2.17), (11.55, 23.11), (5.4, 11.0)], [(3.0, 22.8), (15.0, 24.8), (2.57, 4.57), (25.72, 26.28), (4.26, 23.74), (31.26, 19.4), (31.0, 6.4), (17.03, 2.17), (11.26, 23.4), (5.0, 11.0)], [(3.0, 23.2), (15.0, 25.2), (2.85, 4.85), (25.43, 26.57), (4.55, 23.45), (30.98, 19.68), (31.0, 6.8), (16.63, 2.17), (10.98, 23.68), (5.28, 10.72)], [(3.0, 23.6), (15.0, 25.6), (3.13, 5.13), (25.15, 26.85), (4.83, 23.17), (30.7, 19.96), (31.0, 7.2), (16.23, 2.17), (10.7, 23.96), (5.57, 10.43)], [(3.0, 24.0), (15.0, 26.0), (3.42, 5.42), (24.87, 27.13), (5.11, 22.89), (30.42, 20.24), (31.0, 7.6), (15.83, 2.17), (10.42, 24.24), (5.85, 10.15)], [(3.0, 24.4), (15.0, 26.4), (3.7, 5.7), (24.58, 27.42), (5.4, 22.6), (30.13, 20.53), (31.0, 8.0), (15.43, 2.17), (10.13, 24.53), (6.13, 9.87)], [(3.0, 24.8), (15.0, 26.8), (3.98, 5.98), (24.3, 27.7), (5.68, 22.32), (29.85, 20.81), (31.0, 8.4), (15.03, 2.17), (9.85, 24.81), (6.42, 9.59)]]","[(26.0, 28.4), (26.0, 28.0), (26.0, 27.6), (26.0, 27.2), (26.0, 26.8), (26.0, 26.4), (26.0, 26.0), (25.72, 26.28), (25.43, 26.57), (25.15, 26.85), (24.87, 27.13), (24.58, 27.42), (24.3, 27.7)]",205.08,,,0.39
dynamic task,kh8_dt4,15,1,0,1,1,0.9579787377779212,10,"[[(19.0, 6.0), (12.57, 2.57), (31.6, 18.0), (6.4, 24.0), (24.6, 19.0), (14.6, 27.0), (8.0, 11.2), (31.0, 23.0), (23.0, 14.0), (7.0, 32.0)], [(19.0, 5.6), (12.85, 2.85), (31.2, 18.0), (6.0, 24.0), (25.0, 19.0), (15.0, 27.0), (8.0, 11.6), (31.0, 22.6), (23.0, 13.6), (7.28, 31.72)], [(19.0, 5.2), (13.13, 3.13), (30.8, 18.0), (5.6, 24.0), (25.4, 19.0), (15.4, 27.0), (8.0, 12.0), (31.0, 22.2), (23.0, 13.2), (7.57, 31.43)], [(19.0, 4.8), (13.42, 3.42), (30.4, 18.0), (5.2, 24.0), (25.8, 19.0), (15.8, 27.0), (8.0, 12.4), (31.0, 21.8), (23.0, 12.8), (7.85, 31.15)], [(19.0, 4.4), (13.7, 3.7), (30.0, 18.0), (4.8, 24.0), (26.2, 19.0), (16.2, 27.0), (8.0, 12.8), (31.0, 21.4), (23.0, 12.4), (8.13, 30.87)], [(19.0, 4.0), (13.98, 3.98), (29.6, 18.0), (4.4, 24.0), (26.6, 19.0), (16.6, 27.0), (8.0, 13.2), (31.0, 21.0), (23.0, 12.0), (8.41, 30.58)], [(19.4, 4.0), (14.26, 4.26), (29.2, 18.0), (4.0, 24.0), (27.0, 19.0), (17.0, 27.0), (8.0, 13.6), (30.6, 21.0), (23.0, 11.6), (8.7, 30.3)], [(19.8, 4.0), (14.55, 4.55), (28.8, 18.0), (4.0, 23.6), (27.28, 19.28), (17.4, 27.0), (8.0, 14.0), (30.2, 21.0), (23.0, 11.2), (8.98, 30.02)], [(20.2, 4.0), (14.83, 4.83), (28.4, 18.0), (4.0, 23.2), (27.57, 19.57), (17.8, 27.0), (8.28, 13.72), (29.8, 21.0), (23.0, 10.8), (9.26, 29.74)], [(20.6, 4.0), (15.11, 4.55), (28.0, 18.0), (4.0, 22.8), (27.85, 19.85), (18.2, 27.0), (8.57, 13.43), (29.4, 21.0), (23.0, 10.4), (9.55, 29.45)], [(21.0, 4.0), (15.4, 4.26), (28.0, 18.4), (4.0, 22.4), (28.13, 20.13), (18.6, 27.0), (8.85, 13.15), (29.0, 21.0), (23.0, 10.0), (9.83, 29.17)], [(21.4, 4.0), (15.68, 3.98), (28.0, 18.8), (4.0, 22.0), (28.42, 20.42), (19.0, 27.0), (9.13, 12.87), (28.6, 21.0), (23.28, 9.72), (10.11, 28.89)], [(21.8, 4.0), (15.96, 3.7), (28.0, 19.2), (4.0, 21.6), (28.7, 20.7), (19.4, 27.0), (9.41, 12.58), (28.2, 21.0), (23.57, 9.43), (10.4, 28.6)], [(22.2, 4.0), (16.24, 3.42), (28.0, 19.6), (4.0, 21.2), (28.98, 20.98), (19.8, 27.0), (9.7, 12.3), (27.8, 21.0), (23.85, 9.15), (10.68, 28.32)], [(22.6, 4.0), (16.53, 3.13), (28.0, 20.0), (4.0, 20.8), (29.26, 21.26), (20.2, 27.0), (9.98, 12.02), (27.4, 21.0), (24.13, 8.87), (10.96, 28.04)], [(23.0, 4.0), (16.81, 2.85), (28.0, 20.4), (4.0, 20.4), (29.55, 21.55), (20.6, 27.0), (10.26, 11.74), (27.0, 21.0), (24.42, 8.59), (11.24, 27.76)], [(23.4, 4.0), (17.09, 2.57), (28.0, 20.8), (4.0, 20.0), (29.83, 21.83), (21.0, 27.0), (10.55, 11.45), (27.28, 20.72), (24.7, 8.3), (11.53, 27.47)]]","[(6.4, 24.0), (6.0, 24.0), (5.6, 24.0), (5.2, 24.0), (4.8, 24.0), (4.4, 24.0), (4.0, 24.0), (4.0, 23.6), (4.0, 23.2), (4.0, 22.8), (4.0, 22.4), (4.0, 22.0), (4.0, 21.6), (4.0, 21.2), (4.0, 20.8), (4.0, 20.4), (4.0, 20.0)]",228.51,,,0.873
dynamic task,kh8_dt4,16,0,0,0,1,2.1275380622223565,10,"[[(5.2, 4.0), (27.87, 3.13), (7.0, 5.0), (23.85, 8.15), (15.13, 3.87), (21.0, 3.0), (18.13, 21.87), (29.15, 9.85), (25.6, 32.0), (31.0, 25.8)], [(5.6, 4.0), (27.58, 3.42), (7.0, 5.4), (24.13, 7.87), (15.42, 3.58), (21.4, 3.0), (18.42, 21.58), (28.87, 10.13), (26.0, 32.0), (31.0, 25.4)], [(6.0, 4.0), (27.3, 3.7), (7.0, 5.8), (24.42, 7.58), (15.7, 3.3), (21.8, 3.0), (18.7, 21.3), (28.58, 10.42), (26.4, 32.0), (31.0, 25.0)], [(6.4, 4.0), (27.02, 3.98), (7.0, 6.2), (24.7, 7.3), (15.98, 3.02), (22.2, 3.0), (18.98, 21.02), (28.3, 10.7), (26.8, 32.0), (31.0, 24.6)], [(6.8, 4.0), (26.74, 4.26), (7.0, 6.6), (24.98, 7.02), (16.26, 2.74), (22.6, 3.0), (19.26, 20.74), (28.02, 10.98), (27.2, 32.0), (31.0, 24.2)], [(7.2, 4.0), (26.45, 4.55), (7.0, 7.0), (25.26, 6.74), (16.55, 2.45), (23.0, 3.0), (19.55, 20.45), (27.74, 11.26), (27.6, 32.0), (31.0, 23.8)], [(7.6, 4.0), (26.17, 4.83), (6.72, 6.72), (25.55, 6.45), (16.83, 2.17), (23.28, 3.28), (19.83, 20.17), (27.45, 11.55), (28.0, 32.0), (31.0, 23.4)], [(8.0, 4.0), (25.89, 4.55), (6.43, 6.43), (25.83, 6.17), (16.83, 2.57), (23.57, 3.57), (19.55, 19.89), (27.17, 11.83), (28.0, 31.6), (31.0, 23.0)], [(8.0, 4.4), (25.6, 4.26), (6.15, 6.15), (25.43, 6.17), (16.83, 2.97), (23.85, 3.85), (19.26, 19.6), (26.89, 11.55), (28.0, 31.2), (31.0, 22.6)], [(8.0, 4.8), (25.32, 3.98), (5.87, 5.87), (25.03, 6.17), (16.83, 3.37), (24.13, 4.13), (18.98, 19.32), (26.6, 11.26), (28.0, 30.8), (31.0, 22.2)], [(8.0, 5.2), (25.04, 3.7), (5.58, 5.58), (24.63, 6.17), (16.83, 3.77), (24.42, 4.42), (18.7, 19.04), (26.32, 10.98), (28.0, 30.4), (31.0, 21.8)], [(8.0, 5.6), (24.76, 3.42), (5.3, 5.3), (24.23, 6.17), (16.83, 4.17), (24.7, 4.7), (18.42, 18.76), (26.04, 10.7), (28.0, 30.0), (31.0, 21.4)], [(8.0, 6.0), (24.47, 3.13), (5.02, 5.02), (23.83, 6.17), (16.83, 4.57), (24.98, 4.98), (18.13, 18.47), (25.76, 10.42), (28.0, 29.6), (31.0, 21.0)], [(8.0, 6.4), (24.19, 2.85), (4.74, 4.74), (23.43, 6.17), (16.83, 4.97), (25.26, 5.26), (17.85, 18.19), (25.47, 10.13), (28.0, 29.2), (31.0, 20.6)], [(8.0, 6.8), (23.91, 2.57), (4.45, 4.45), (23.03, 6.17), (16.83, 5.37), (25.55, 5.55), (17.57, 17.91), (25.19, 9.85), (28.0, 28.8), (31.0, 20.2)], [(8.0, 7.2), (23.62, 2.28), (4.17, 4.17), (22.63, 6.17), (16.83, 5.77), (25.83, 5.83), (17.28, 17.62), (24.91, 9.57), (28.0, 28.4), (31.0, 19.8)], [(8.0, 7.6), (23.34, 2.0), (4.17, 4.57), (22.23, 6.17), (16.83, 6.17), (26.23, 5.83), (17.0, 17.34), (24.62, 9.28), (28.0, 28.0), (31.0, 19.4)], [(8.0, 8.0), (23.74, 2.0), (4.17, 4.97), (21.83, 6.17), (17.11, 6.45), (26.63, 5.83), (17.0, 16.94), (24.34, 9.0), (27.72, 28.28), (31.0, 19.0)], [(8.0, 8.4), (24.14, 2.0), (4.17, 5.37), (21.55, 5.89), (17.4, 6.74), (27.03, 5.83), (17.0, 16.54), (24.34, 8.6), (27.43, 28.57), (30.72, 18.72)], [(8.0, 8.8), (24.54, 2.0), (4.17, 5.77), (21.26, 5.6), (17.68, 7.02), (27.43, 5.83), (17.0, 16.14), (24.34, 8.2), (27.15, 28.85), (30.43, 18.43)], [(8.0, 9.2), (24.94, 2.0), (4.17, 6.17), (20.98, 5.32), (17.96, 7.3), (27.83, 5.83), (17.0, 15.74), (24.34, 7.8), (26.87, 29.13), (30.15, 18.15)], [(8.0, 9.6), (25.34, 2.0), (4.17, 6.57), (20.7, 5.04), (18.24, 7.58), (28.23, 5.83), (17.0, 15.34), (24.34, 7.4), (26.58, 29.42), (29.87, 17.87)], [(8.0, 10.0), (25.74, 2.0), (4.17, 6.97), (20.42, 4.76), (18.53, 7.87), (28.63, 5.83), (17.0, 14.94), (24.34, 7.0), (26.3, 29.7), (29.58, 17.58)], [(8.0, 10.4), (26.14, 2.0), (4.17, 7.37), (20.13, 4.47), (18.81, 8.15), (29.03, 5.83), (17.0, 14.54), (24.34, 6.6), (26.02, 29.98), (29.3, 17.3)], [(8.0, 10.8), (26.54, 2.0), (4.17, 7.77), (19.85, 4.19), (19.09, 8.43), (29.43, 5.83), (17.0, 14.14), (24.34, 6.2), (25.74, 30.26), (29.02, 17.02)], [(8.0, 11.2), (26.94, 2.0), (4.17, 8.17), (19.57, 3.91), (19.38, 8.72), (29.83, 5.83), (17.0, 13.74), (24.34, 5.8), (25.45, 30.55), (28.74, 16.74)], [(8.0, 11.6), (27.34, 2.0), (4.17, 8.57), (19.28, 3.62), (19.66, 9.0), (30.11, 6.11), (17.0, 13.34), (24.34, 5.4), (25.17, 30.83), (28.45, 16.45)], [(8.0, 12.0), (27.34, 2.4), (4.17, 8.97), (19.0, 3.34), (19.94, 8.72), (30.4, 6.4), (17.0, 12.94), (24.34, 5.0), (25.17, 30.43), (28.17, 16.17)], [(8.28, 12.28), (27.34, 2.8), (4.17, 9.37), (19.4, 3.34), (20.23, 8.43), (30.68, 6.68), (17.0, 12.54), (24.62, 4.72), (25.17, 30.03), (28.17, 16.57)], [(8.57, 12.57), (27.34, 3.2), (4.17, 9.77), (19.8, 3.34), (20.51, 8.15), (30.96, 6.96), (17.0, 12.14), (24.91, 4.43), (25.17, 29.63), (28.17, 16.97)], [(8.85, 12.85), (27.34, 3.6), (4.17, 10.17), (20.2, 3.34), (20.79, 7.87), (31.24, 7.24), (17.0, 11.74), (25.19, 4.15), (25.17, 29.23), (28.17, 17.37)], [(9.13, 13.13), (27.34, 4.0), (4.17, 10.57), (20.6, 3.34), (21.07, 7.58), (31.53, 7.53), (17.0, 11.34), (25.47, 3.87), (25.17, 28.83), (28.17, 17.77)], [(9.41, 13.42), (27.34, 4.4), (4.17, 10.97), (21.0, 3.34), (21.36, 7.3), (31.81, 7.81), (17.0, 10.94), (25.76, 3.58), (25.17, 28.43), (28.17, 18.17)], [(9.7, 13.7), (27.34, 4.8), (4.17, 11.37), (21.4, 3.34), (21.64, 7.02), (32.09, 8.09), (17.0, 10.54), (26.04, 3.3), (25.17, 28.03), (28.17, 18.57)], [(9.98, 13.98), (27.34, 5.2), (4.17, 11.77), (21.8, 3.34), (21.92, 6.74), (32.38, 8.38), (17.0, 10.14), (26.32, 3.02), (25.17, 27.63), (28.17, 18.97)], [(10.26, 14.26), (27.34, 5.6), (4.17, 12.17), (22.2, 3.34), (22.21, 6.45), (32.66, 8.66), (17.0, 9.74), (26.6, 2.74), (25.17, 27.23), (28.17, 19.37)], [(10.55, 14.55), (27.34, 6.0), (4.57, 12.17), (22.6, 3.34), (22.49, 6.17), (32.26, 8.66), (17.0, 9.34), (26.89, 2.45), (25.17, 26.83), (28.17, 19.77)], [(10.83, 14.83), (27.34, 6.4), (4.97, 12.17), (23.0, 3.34), (22.77, 6.45), (31.86, 8.66), (17.28, 9.06), (27.17, 2.17), (25.45, 27.11), (28.17, 20.17)], [(10.83, 15.23), (27.34, 6.8), (5.37, 12.17), (23.4, 3.34), (23.06, 6.74), (31.46, 8.66), (17.57, 8.77), (27.57, 2.17), (25.74, 27.4), (28.45, 19.89)], [(10.83, 15.63), (27.34, 7.2), (5.77, 12.17), (23.8, 3.34), (23.34, 7.02), (31.06, 8.66), (17.85, 8.49), (27.97, 2.17), (26.02, 27.68), (28.74, 19.6)]]",,0.0,,,0.595
dynamic task,kh8_dt4,17,1,0,1,1,0.9729891555552967,10,"[[(31.0, 28.0), (13.4, 5.0), (10.58, 29.42), (7.0, 21.4), (4.0, 8.4), (26.85, 31.15), (29.85, 12.85), (16.0, 30.0), (27.13, 16.13), (19.4, 5.0)], [(31.0, 28.4), (13.8, 5.0), (10.3, 29.7), (7.0, 21.0), (4.0, 8.0), (27.13, 30.87), (30.13, 13.13), (16.4, 30.0), (27.42, 16.42), (19.8, 5.0)], [(31.0, 28.8), (14.2, 5.0), (10.02, 29.98), (7.0, 20.6), (4.0, 7.6), (27.42, 30.58), (30.42, 13.42), (16.8, 30.0), (27.7, 16.7), (20.2, 5.0)], [(31.0, 29.2), (14.6, 5.0), (9.74, 30.26), (7.0, 20.2), (4.0, 7.2), (27.7, 30.3), (30.7, 13.7), (17.2, 30.0), (27.98, 16.98), (20.6, 5.0)], [(31.0, 29.6), (15.0, 5.0), (9.45, 30.55), (7.0, 19.8), (4.0, 6.8), (27.98, 30.02), (30.98, 13.98), (17.6, 30.0), (28.26, 17.26), (21.0, 5.0)], [(31.0, 30.0), (15.4, 5.0), (9.17, 30.83), (7.0, 19.4), (4.0, 6.4), (28.26, 29.74), (31.26, 14.26), (18.0, 30.0), (28.55, 17.55), (21.4, 5.0)], [(31.0, 30.4), (15.8, 5.0), (9.17, 30.43), (7.0, 19.0), (4.0, 6.0), (28.55, 29.45), (31.55, 14.55), (17.72, 29.72), (28.83, 17.83), (21.8, 5.0)], [(31.0, 30.8), (16.2, 5.0), (9.17, 30.03), (7.28, 18.72), (4.4, 6.0), (28.83, 29.17), (31.83, 14.83), (17.43, 29.43), (28.83, 17.43), (22.2, 5.0)], [(31.0, 31.2), (16.6, 5.0), (9.17, 29.63), (7.57, 18.43), (4.8, 6.0), (29.11, 29.45), (31.83, 14.43), (17.15, 29.15), (28.83, 17.03), (22.6, 5.0)], [(31.0, 31.6), (17.0, 5.0), (9.17, 29.23), (7.85, 18.15), (5.2, 6.0), (29.4, 29.74), (31.83, 14.03), (16.87, 28.87), (28.83, 16.63), (23.0, 5.0)], [(31.0, 32.0), (16.72, 5.28), (9.17, 28.83), (8.13, 17.87), (5.6, 6.0), (29.68, 30.02), (31.83, 13.63), (16.58, 28.58), (28.83, 16.23), (23.4, 5.0)], [(30.6, 32.0), (16.43, 5.57), (9.17, 28.43), (8.41, 17.58), (6.0, 6.0), (29.96, 30.3), (31.83, 13.23), (16.3, 28.3), (28.83, 15.83), (23.8, 5.0)], [(30.2, 32.0), (16.15, 5.85), (9.17, 28.03), (8.7, 17.3), (6.4, 6.0), (30.24, 30.58), (31.83, 12.83), (16.02, 28.02), (28.83, 15.43), (24.2, 5.0)], [(29.8, 32.0), (15.87, 6.13), (9.17, 27.63), (8.98, 17.02), (6.8, 6.0), (30.53, 30.87), (31.83, 12.43), (15.74, 27.74), (28.83, 15.03), (24.6, 5.0)], [(29.4, 32.0), (15.58, 6.42), (9.17, 27.23), (9.26, 16.74), (7.2, 6.0), (30.81, 31.15), (31.83, 12.03), (15.45, 27.45), (28.83, 14.63), (25.0, 5.0)], [(29.0, 32.0), (15.3, 6.7), (9.17, 26.83), (9.55, 16.45), (7.6, 6.0), (31.09, 31.43), (31.83, 11.63), (15.17, 27.17), (28.83, 14.23), (25.4, 5.0)], [(28.6, 32.0), (15.02, 6.98), (9.45, 26.55), (9.83, 16.17), (8.0, 6.0), (31.38, 31.72), (31.83, 11.23), (15.57, 27.17), (28.83, 13.83), (25.8, 5.0)]]","[(29.85, 12.85), (30.13, 13.13), (30.42, 13.42), (30.7, 13.7), (30.98, 13.98), (31.26, 14.26), (31.55, 14.55), (31.83, 14.83), (31.83, 14.43), (31.83, 14.03), (31.83, 13.63), (31.83, 13.23), (31.83, 12.83), (31.83, 12.43), (31.83, 12.03), (31.83, 11.63), (31.83, 11.23)]",221.84,,,0.706
dynamic task,kh8_dt4,18,1,0,1,1,0.9409968355557794,10,"[[(15.13, 12.13), (19.58, 5.42), (18.58, 6.58), (5.0, 31.0), (7.42, 24.58), (21.43, 27.43), (23.0, 18.0), (11.85, 3.85), (15.4, 4.0), (29.0, 22.0)], [(15.42, 12.42), (19.3, 5.7), (18.3, 6.3), (5.4, 31.0), (7.7, 24.3), (21.15, 27.15), (22.72, 17.72), (12.13, 4.13), (15.0, 4.0), (28.6, 22.0)], [(15.7, 12.7), (19.02, 5.98), (18.02, 6.02), (5.8, 31.0), (7.98, 24.02), (20.87, 26.87), (22.43, 17.43), (12.42, 4.42), (14.6, 4.0), (28.2, 22.0)], [(15.98, 12.98), (18.74, 6.26), (17.74, 5.74), (6.2, 31.0), (8.26, 23.74), (20.58, 26.58), (22.15, 17.15), (12.7, 4.7), (14.2, 4.0), (27.8, 22.0)], [(16.26, 13.26), (18.45, 6.55), (17.45, 5.45), (6.6, 31.0), (8.55, 23.45), (20.3, 26.3), (21.87, 16.87), (12.98, 4.98), (13.8, 4.0), (27.4, 22.0)], [(16.55, 13.55), (18.17, 6.83), (17.17, 5.17), (7.0, 31.0), (8.83, 23.17), (20.02, 26.02), (21.58, 16.58), (13.26, 5.26), (13.4, 4.0), (27.0, 22.0)], [(16.83, 13.83), (18.45, 7.11), (17.17, 5.57), (7.4, 31.0), (8.83, 23.57), (19.74, 25.74), (21.3, 16.3), (13.55, 5.55), (13.0, 4.0), (26.6, 22.0)], [(17.23, 13.83), (18.74, 7.4), (17.17, 5.97), (7.8, 31.0), (8.83, 23.97), (19.45, 25.45), (21.02, 16.02), (13.83, 5.83), (13.28, 4.28), (26.2, 22.0)], [(17.63, 13.83), (19.02, 7.68), (17.17, 6.37), (8.2, 31.0), (8.83, 24.37), (19.17, 25.17), (20.74, 15.74), (14.11, 5.55), (13.57, 4.57), (25.8, 22.0)], [(18.03, 13.83), (19.3, 7.96), (17.17, 6.77), (8.6, 31.0), (8.83, 24.77), (19.45, 24.89), (20.45, 15.45), (14.4, 5.26), (13.85, 4.85), (25.4, 22.0)], [(18.43, 13.83), (19.58, 8.25), (17.17, 7.17), (9.0, 31.0), (8.83, 25.17), (19.74, 24.6), (20.17, 15.17), (14.68, 4.98), (14.13, 5.13), (25.0, 22.0)], [(18.83, 13.83), (19.87, 8.53), (17.17, 7.57), (9.4, 31.0), (8.83, 25.57), (20.02, 24.32), (20.45, 14.89), (14.96, 4.7), (14.42, 5.42), (24.72, 22.28)], [(19.23, 13.83), (20.15, 8.81), (17.17, 7.97), (9.8, 31.0), (8.83, 25.97), (20.3, 24.04), (20.74, 14.6), (15.24, 4.42), (14.7, 5.7), (24.43, 22.57)], [(19.63, 13.83), (20.43, 9.09), (17.17, 8.37), (10.2, 31.0), (8.83, 26.37), (20.58, 23.76), (21.02, 14.32), (15.53, 4.13), (14.98, 5.98), (24.15, 22.85)], [(20.03, 13.83), (20.72, 9.38), (17.17, 8.77), (10.6, 31.0), (8.83, 26.77), (20.87, 23.47), (21.3, 14.04), (15.81, 3.85), (15.26, 6.26), (23.87, 23.13)], [(20.43, 13.83), (21.0, 9.66), (17.17, 9.17), (11.0, 31.0), (8.83, 27.17), (21.15, 23.19), (21.58, 13.76), (16.09, 3.57), (15.55, 6.55), (23.58, 23.42)]]","[(7.42, 24.58), (7.7, 24.3), (7.98, 24.02), (8.26, 23.74), (8.55, 23.45), (8.83, 23.17), (8.83, 23.57), (8.83, 23.97), (8.83, 24.37), (8.83, 24.77), (8.83, 25.17), (8.83, 25.57), (8.83, 25.97), (8.83, 26.37), (8.83, 26.77), (8.83, 27.17)]",212.99,,,1.087
dynamic task,kh8_dt4,19,0,0,0,1,1.0200157866665904,10,"[[(11.72, 24.72), (4.13, 21.13), (20.57, 9.43), (20.8, 10.0), (24.28, 23.28), (22.2, 30.0), (24.0, 21.6), (17.43, 28.43), (5.0, 27.4), (9.57, 19.57)], [(11.43, 24.43), (4.42, 21.42), (20.85, 9.15), (20.4, 10.0), (24.57, 23.57), (21.8, 30.0), (24.0, 22.0), (17.15, 28.15), (5.0, 27.0), (9.85, 19.85)], [(11.15, 24.15), (4.7, 21.7), (21.13, 8.87), (20.0, 10.0), (24.85, 23.85), (21.4, 30.0), (24.0, 22.4), (16.87, 27.87), (5.0, 26.6), (10.13, 20.13)], [(10.87, 23.87), (4.98, 21.98), (21.42, 8.59), (19.6, 10.0), (25.13, 24.13), (21.0, 30.0), (24.0, 22.8), (16.58, 27.58), (5.0, 26.2), (10.42, 20.42)], [(10.58, 23.58), (5.26, 22.26), (21.7, 8.3), (19.2, 10.0), (25.42, 24.42), (20.6, 30.0), (24.0, 23.2), (16.3, 27.3), (5.0, 25.8), (10.7, 20.7)], [(10.3, 23.3), (5.55, 22.55), (21.98, 8.02), (18.8, 10.0), (25.7, 24.7), (20.2, 30.0), (24.0, 23.6), (16.02, 27.02), (5.0, 25.4), (10.98, 20.98)], [(10.02, 23.02), (5.83, 22.83), (22.26, 7.74), (18.4, 10.0), (25.98, 24.98), (19.8, 30.0), (24.0, 24.0), (15.74, 26.74), (5.0, 25.0), (11.26, 21.26)], [(9.74, 22.74), (6.23, 22.83), (22.55, 7.45), (18.0, 10.0), (26.26, 25.26), (19.4, 30.0), (23.6, 24.0), (15.45, 26.45), (5.4, 25.0), (11.55, 21.55)], [(9.45, 22.45), (6.63, 22.83), (22.83, 7.17), (18.0, 9.6), (26.55, 25.55), (19.0, 30.0), (23.2, 24.0), (15.17, 26.17), (5.8, 25.0), (11.83, 21.83)], [(9.17, 22.17), (7.03, 22.83), (23.11, 6.89), (18.0, 9.2), (26.83, 25.83), (18.6, 30.0), (22.8, 24.0), (15.45, 25.89), (6.2, 25.0), (12.11, 22.11)], [(8.77, 22.17), (7.43, 22.83), (23.4, 6.6), (18.0, 8.8), (27.11, 25.55), (18.2, 30.0), (22.4, 24.0), (15.74, 25.6), (6.6, 25.0), (12.4, 22.4)], [(8.37, 22.17), (7.83, 22.83), (23.68, 6.32), (18.0, 8.4), (27.4, 25.26), (17.8, 30.0), (22.0, 24.0), (16.02, 25.32), (7.0, 25.0), (12.68, 22.68)], [(7.97, 22.17), (8.23, 22.83), (23.96, 6.04), (18.0, 8.0), (27.68, 24.98), (17.4, 30.0), (21.6, 24.0), (16.3, 25.04), (7.4, 25.0), (12.96, 22.96)], [(7.57, 22.17), (8.63, 22.83), (24.24, 5.76), (18.0, 7.6), (27.96, 24.7), (17.0, 30.0), (21.2, 24.0), (16.58, 24.76), (7.8, 25.0), (13.24, 23.24)], [(7.17, 22.17), (9.03, 22.83), (24.53, 5.47), (18.0, 7.2), (28.24, 24.42), (16.6, 30.0), (20.8, 24.0), (16.87, 24.47), (8.2, 25.0), (13.53, 23.53)], [(6.77, 22.17), (9.43, 22.83), (24.81, 5.19), (18.0, 6.8), (28.53, 24.13), (16.2, 30.0), (20.4, 24.0), (17.15, 24.19), (8.6, 25.0), (13.81, 23.81)], [(6.37, 22.17), (9.83, 22.83), (25.09, 4.91), (18.0, 6.4), (28.81, 23.85), (15.8, 30.0), (20.0, 24.0), (17.43, 23.91), (9.0, 25.0), (14.09, 24.09)], [(5.97, 22.17), (9.83, 22.43), (25.38, 4.62), (18.0, 6.0), (29.09, 23.57), (15.4, 30.0), (19.6, 24.0), (17.72, 23.62), (8.72, 24.72), (14.38, 24.38)]]",,0.0,,,0.921
dynamic task,kh8_dt4,20,1,0,1,1,1.0310673066665004,10,"[[(31.0, 9.8), (24.0, 14.0), (6.0, 21.0), (17.4, 31.0), (17.0, 23.0), (15.0, 27.0), (18.0, 17.0), (16.0, 15.0), (31.6, 29.0), (13.0, 2.0)], [(31.0, 9.4), (23.6, 14.0), (6.0, 21.4), (17.0, 31.0), (17.0, 22.6), (15.4, 27.0), (17.72, 17.28), (16.0, 15.4), (31.2, 29.0), (12.6, 2.0)], [(31.0, 9.0), (23.2, 14.0), (6.0, 21.8), (16.6, 31.0), (17.0, 22.2), (15.8, 27.0), (17.43, 17.57), (16.0, 15.8), (30.8, 29.0), (12.2, 2.0)], [(31.0, 8.6), (22.8, 14.0), (6.0, 22.2), (16.2, 31.0), (17.0, 21.8), (16.2, 27.0), (17.15, 17.85), (16.0, 16.2), (30.4, 29.0), (11.8, 2.0)], [(31.0, 8.2), (22.4, 14.0), (6.0, 22.6), (15.8, 31.0), (17.0, 21.4), (16.6, 27.0), (16.87, 18.13), (16.0, 16.6), (30.0, 29.0), (11.4, 2.0)], [(31.0, 7.8), (22.0, 14.0), (6.0, 23.0), (15.4, 31.0), (17.0, 21.0), (17.0, 27.0), (16.58, 18.42), (16.0, 17.0), (29.6, 29.0), (11.0, 2.0)], [(31.0, 7.4), (22.0, 13.6), (5.6, 23.0), (15.0, 31.0), (17.0, 20.6), (17.28, 26.72), (16.3, 18.7), (16.0, 17.4), (29.2, 29.0), (10.72, 2.28)], [(31.0, 7.0), (22.0, 13.2), (5.2, 23.0), (15.0, 30.6), (17.0, 20.2), (17.57, 26.43), (16.02, 18.98), (16.0, 17.8), (28.8, 29.0), (10.43, 2.57)], [(30.6, 7.0), (22.0, 12.8), (4.8, 23.0), (15.0, 30.2), (17.0, 19.8), (17.85, 26.15), (15.74, 19.26), (16.0, 18.2), (28.4, 29.0), (10.15, 2.85)], [(30.2, 7.0), (22.0, 12.4), (4.4, 23.0), (15.0, 29.8), (17.0, 19.4), (18.13, 25.87), (15.45, 19.55), (16.0, 18.6), (28.0, 29.0), (9.87, 3.13)], [(29.8, 7.0), (22.0, 12.0), (4.0, 23.0), (15.0, 29.4), (17.0, 19.0), (18.42, 25.58), (15.17, 19.83), (16.0, 19.0), (28.0, 28.6), (9.59, 3.42)], [(29.4, 7.0), (22.0, 11.6), (3.6, 23.0), (15.0, 29.0), (17.0, 18.6), (18.7, 25.3), (14.89, 19.55), (16.28, 18.72), (28.0, 28.2), (9.3, 3.7)], [(29.0, 7.0), (22.0, 11.2), (3.2, 23.0), (15.0, 28.6), (17.0, 18.2), (18.98, 25.02), (14.6, 19.26), (16.57, 18.43), (28.0, 27.8), (9.02, 3.98)], [(28.6, 7.0), (22.0, 10.8), (2.8, 23.0), (15.0, 28.2), (17.0, 17.8), (19.26, 24.74), (14.32, 18.98), (16.85, 18.15), (28.0, 27.4), (8.74, 4.26)], [(28.2, 7.0), (22.0, 10.4), (2.4, 23.0), (15.0, 27.8), (17.0, 17.4), (19.55, 24.45), (14.04, 18.7), (17.13, 17.87), (28.0, 27.0), (8.45, 4.55)], [(27.8, 7.0), (22.0, 10.0), (2.0, 23.0), (15.0, 27.4), (17.0, 17.0), (19.83, 24.17), (13.76, 18.42), (17.42, 17.58), (28.0, 26.6), (8.17, 4.83)], [(27.4, 7.0), (21.72, 10.28), (2.28, 22.72), (15.0, 27.0), (17.28, 17.28), (19.83, 24.57), (13.47, 18.13), (17.7, 17.3), (28.0, 26.2), (8.17, 5.23)], [(27.0, 7.0), (21.43, 10.57), (2.57, 22.43), (15.0, 26.6), (17.57, 17.57), (19.83, 24.97), (13.19, 17.85), (17.98, 17.02), (28.0, 25.8), (8.17, 5.63)]]","[(17.4, 31.0), (17.0, 31.0), (16.6, 31.0), (16.2, 31.0), (15.8, 31.0), (15.4, 31.0), (15.0, 31.0), (15.0, 30.6), (15.0, 30.2), (15.0, 29.8), (15.0, 29.4), (15.0, 29.0), (15.0, 28.6), (15.0, 28.2), (15.0, 27.8), (15.0, 27.4), (15.0, 27.0), (15.0, 26.6)]",223.91,,,1.943
dynamic task,kh8_dt4,21,0,0,0,1,0.8679910400001063,10,"[[(19.0, 23.2), (7.72, 3.28), (28.0, 9.0), (16.0, 7.0), (8.0, 2.0), (8.0, 5.0), (8.28, 12.28), (28.0, 19.4), (25.0, 7.0), (7.13, 31.13)], [(19.0, 23.6), (7.43, 3.57), (28.4, 9.0), (15.72, 7.28), (7.72, 2.28), (8.0, 5.4), (8.57, 12.57), (28.0, 19.0), (24.72, 6.72), (7.42, 31.42)], [(19.0, 24.0), (7.15, 3.85), (28.8, 9.0), (15.43, 7.57), (7.43, 2.57), (8.0, 5.8), (8.85, 12.85), (28.0, 18.6), (24.43, 6.43), (7.7, 31.7)], [(19.0, 24.4), (6.87, 4.13), (29.2, 9.0), (15.15, 7.85), (7.15, 2.85), (8.0, 6.2), (9.13, 13.13), (28.0, 18.2), (24.15, 6.15), (7.98, 31.98)], [(19.0, 24.8), (6.58, 4.42), (29.6, 9.0), (14.87, 8.13), (6.87, 3.13), (8.0, 6.6), (9.41, 13.42), (28.0, 17.8), (23.87, 5.87), (8.26, 32.26)], [(19.0, 25.2), (6.3, 4.7), (30.0, 9.0), (14.58, 8.41), (6.58, 3.42), (8.0, 7.0), (9.7, 13.7), (28.0, 17.4), (23.58, 5.58), (8.55, 32.55)], [(19.0, 25.6), (6.02, 4.98), (29.72, 8.72), (14.3, 8.7), (6.3, 3.7), (8.0, 7.4), (9.98, 13.98), (28.0, 17.0), (23.3, 5.3), (8.83, 32.83)], [(19.0, 26.0), (5.74, 5.26), (29.43, 8.43), (14.02, 8.98), (6.02, 3.98), (8.0, 7.8), (10.26, 14.26), (27.6, 17.0), (23.02, 5.02), (9.23, 32.83)], [(18.72, 26.28), (5.45, 5.55), (29.15, 8.15), (13.74, 9.26), (5.74, 4.26), (8.0, 8.2), (10.55, 14.55), (27.2, 17.0), (22.74, 4.74), (9.63, 32.83)], [(18.43, 26.57), (5.17, 5.83), (28.87, 7.87), (13.45, 9.55), (5.45, 4.55), (8.0, 8.6), (10.83, 14.83), (26.8, 17.0), (22.45, 4.45), (10.03, 32.83)], [(18.15, 26.85), (5.17, 6.23), (28.58, 7.58), (13.17, 9.83), (5.17, 4.83), (8.0, 9.0), (10.83, 14.43), (26.4, 17.0), (22.17, 4.17), (10.43, 32.83)], [(17.87, 27.13), (5.17, 6.63), (28.3, 7.3), (13.57, 9.83), (4.89, 4.55), (7.72, 8.72), (10.83, 14.03), (26.0, 17.0), (21.89, 4.45), (10.83, 32.83)], [(17.58, 27.42), (5.17, 7.03), (28.02, 7.02), (13.97, 9.83), (4.6, 4.26), (7.43, 8.43), (10.83, 13.63), (25.6, 17.0), (21.6, 4.74), (11.23, 32.83)], [(17.3, 27.7), (5.17, 7.43), (27.74, 6.74), (14.37, 9.83), (4.32, 3.98), (7.15, 8.15), (10.83, 13.23), (25.2, 17.0), (21.32, 5.02), (11.63, 32.83)], [(17.02, 27.98), (5.17, 7.83), (27.45, 6.45), (14.77, 9.83), (4.04, 3.7), (6.87, 7.87), (10.83, 12.83), (24.8, 17.0), (21.04, 5.3), (12.03, 32.83)]]",,0.0,,,1.756
dynamic task,kh8_dt4,22,1,0,1,1,0.7356182755556802,10,"[[(4.8, 24.0), (27.28, 13.72), (8.28, 25.72), (11.57, 18.43), (20.0, 15.0), (29.57, 4.43), (13.8, 19.0), (31.2, 24.0), (5.85, 24.85), (28.15, 19.15)], [(4.4, 24.0), (27.57, 13.43), (8.57, 25.43), (11.85, 18.15), (20.0, 15.4), (29.85, 4.15), (14.2, 19.0), (30.8, 24.0), (6.13, 25.13), (27.87, 18.87)], [(4.0, 24.0), (27.85, 13.15), (8.85, 25.15), (12.13, 17.87), (20.0, 15.8), (30.13, 3.87), (14.6, 19.0), (30.4, 24.0), (6.42, 25.42), (27.58, 18.58)], [(3.6, 24.0), (28.13, 12.87), (9.13, 24.87), (12.42, 17.58), (20.0, 16.2), (30.42, 3.58), (15.0, 19.0), (30.0, 24.0), (6.7, 25.7), (27.3, 18.3)], [(3.2, 24.0), (28.42, 12.58), (9.41, 24.58), (12.7, 17.3), (20.0, 16.6), (30.7, 3.3), (15.4, 19.0), (29.6, 24.0), (6.98, 25.98), (27.02, 18.02)], [(2.8, 24.0), (28.7, 12.3), (9.7, 24.3), (12.98, 17.02), (20.0, 17.0), (30.98, 3.02), (15.8, 19.0), (29.2, 24.0), (7.26, 26.26), (26.74, 17.74)], [(2.4, 24.0), (28.98, 12.02), (9.98, 24.02), (13.26, 16.74), (20.0, 17.4), (31.26, 2.74), (16.2, 19.0), (28.8, 24.0), (7.55, 26.55), (26.45, 17.45)], [(2.0, 24.0), (29.26, 11.74), (10.26, 23.74), (13.55, 16.45), (20.0, 17.8), (31.55, 2.45), (16.6, 19.0), (28.4, 24.0), (7.83, 26.83), (26.17, 17.17)], [(2.0, 23.6), (29.55, 11.45), (10.55, 23.45), (13.83, 16.17), (20.0, 18.2), (31.83, 2.17), (17.0, 19.0), (28.0, 24.0), (8.11, 26.55), (26.45, 16.89)], [(2.0, 23.2), (29.83, 11.17), (10.83, 23.17), (13.43, 16.17), (20.0, 18.6), (31.83, 2.57), (16.72, 19.28), (28.0, 23.6), (8.4, 26.26), (26.74, 16.6)], [(2.0, 22.8), (29.55, 10.89), (10.83, 23.57), (13.03, 16.17), (20.0, 19.0), (31.83, 2.97), (16.43, 19.57), (28.0, 23.2), (8.68, 25.98), (27.02, 16.32)], [(2.0, 22.4), (29.26, 10.6), (10.83, 23.97), (12.63, 16.17), (20.28, 19.28), (31.83, 3.37), (16.15, 19.85), (28.0, 22.8), (8.96, 25.7), (27.3, 16.04)]]","[(20.0, 15.0), (20.0, 15.4), (20.0, 15.8), (20.0, 16.2), (20.0, 16.6), (20.0, 17.0), (20.0, 17.4), (20.0, 17.8), (20.0, 18.2), (20.0, 18.6), (20.0, 19.0), (20.28, 19.28)]",200.67,,,2.115
dynamic task,kh8_dt4,23,0,0,0,1,0.8342254933336335,10,"[[(8.0, 16.0), (17.13, 29.87), (15.0, 14.0), (29.0, 27.0), (23.72, 15.28), (10.15, 20.15), (29.0, 24.0), (27.42, 16.42), (27.2, 22.0), (10.0, 22.0)], [(8.0, 16.4), (17.42, 29.58), (14.6, 14.0), (29.0, 26.6), (23.43, 15.57), (9.87, 19.87), (28.72, 23.72), (27.7, 16.7), (27.6, 22.0), (10.28, 21.72)], [(8.0, 16.8), (17.7, 29.3), (14.2, 14.0), (29.0, 26.2), (23.15, 15.85), (9.59, 19.58), (28.43, 23.43), (27.98, 16.98), (28.0, 22.0), (10.57, 21.43)], [(8.0, 17.2), (17.98, 29.02), (13.8, 14.0), (29.0, 25.8), (22.87, 16.13), (9.3, 19.3), (28.15, 23.15), (28.26, 17.26), (28.4, 22.0), (10.85, 21.15)], [(8.0, 17.6), (18.26, 28.74), (13.4, 14.0), (29.0, 25.4), (22.58, 16.42), (9.02, 19.02), (27.87, 22.87), (28.55, 17.55), (28.8, 22.0), (11.13, 20.87)], [(8.0, 18.0), (18.55, 28.45), (13.0, 14.0), (29.0, 25.0), (22.3, 16.7), (8.74, 18.74), (27.58, 22.58), (28.83, 17.83), (29.2, 22.0), (11.42, 20.58)], [(7.72, 17.72), (18.83, 28.17), (12.6, 14.0), (28.72, 24.72), (22.02, 16.98), (8.45, 18.45), (27.3, 22.3), (29.11, 17.55), (29.6, 22.0), (11.7, 20.3)], [(7.43, 17.43), (19.11, 28.45), (12.2, 14.0), (28.43, 24.43), (21.74, 17.26), (8.17, 18.17), (27.02, 22.02), (29.4, 17.26), (30.0, 22.0), (11.98, 20.02)], [(7.15, 17.15), (19.4, 28.74), (11.8, 14.0), (28.15, 24.15), (21.45, 17.55), (8.45, 17.89), (26.74, 21.74), (29.68, 16.98), (30.0, 22.4), (12.26, 19.74)], [(6.87, 16.87), (19.68, 29.02), (11.4, 14.0), (27.87, 23.87), (21.17, 17.83), (8.74, 17.6), (26.45, 21.45), (29.96, 16.7), (30.0, 22.8), (12.55, 19.45)], [(6.58, 16.58), (19.96, 29.3), (11.0, 14.0), (27.58, 23.58), (21.57, 17.83), (9.02, 17.32), (26.17, 21.17), (30.24, 16.42), (30.0, 23.2), (12.83, 19.17)], [(6.3, 16.3), (20.24, 29.58), (11.0, 14.4), (27.3, 23.3), (21.97, 17.83), (9.3, 17.04), (25.89, 21.45), (30.53, 16.13), (30.0, 23.6), (13.23, 19.17)], [(6.02, 16.02), (20.53, 29.87), (11.0, 14.8), (27.02, 23.02), (22.37, 17.83), (9.59, 16.76), (25.6, 21.74), (30.81, 15.85), (30.0, 24.0), (13.63, 19.17)], [(5.74, 15.74), (20.81, 30.15), (11.0, 15.2), (26.74, 22.74), (22.77, 17.83), (9.87, 16.47), (25.32, 22.02), (31.09, 15.57), (30.0, 24.4), (14.03, 19.17)]]",,0.0,,,0.122
dynamic task,kh8_dt4,24,1,0,0,0,1.2292087466666999,10,"[[(25.0, 6.6), (14.28, 4.28), (13.0, 14.2), (2.0, 3.0), (22.58, 26.58), (21.57, 26.43), (25.42, 30.42), (32.0, 27.0), (22.42, 18.42), (14.0, 32.0)], [(25.0, 7.0), (14.57, 4.57), (13.0, 14.6), (2.0, 3.4), (22.3, 26.3), (21.85, 26.15), (25.7, 30.7), (31.72, 26.72), (22.7, 18.7), (13.72, 31.72)], [(25.0, 7.4), (14.85, 4.85), (13.0, 15.0), (2.0, 3.8), (22.02, 26.02), (22.13, 25.87), (25.98, 30.98), (31.43, 26.43), (22.98, 18.98), (13.43, 31.43)], [(25.0, 7.8), (15.13, 5.13), (13.0, 15.4), (2.0, 4.2), (21.74, 25.74), (22.42, 25.58), (26.26, 31.26), (31.15, 26.15), (23.26, 19.26), (13.15, 31.15)], [(25.0, 8.2), (15.42, 5.42), (13.0, 15.8), (2.0, 4.6), (21.45, 25.45), (22.7, 25.3), (26.55, 31.55), (30.87, 25.87), (23.55, 19.55), (12.87, 30.87)], [(25.0, 8.6), (15.7, 5.7), (13.0, 16.2), (2.0, 5.0), (21.17, 25.17), (22.98, 25.02), (26.83, 31.83), (30.58, 25.58), (23.83, 19.83), (12.58, 30.58)], [(25.0, 9.0), (15.98, 5.98), (13.0, 16.6), (2.0, 5.4), (20.77, 25.17), (23.26, 24.74), (27.11, 31.55), (30.3, 25.3), (23.83, 19.43), (12.3, 30.3)], [(24.72, 8.72), (16.26, 6.26), (13.0, 17.0), (2.0, 5.8), (20.37, 25.17), (23.55, 24.45), (27.4, 31.26), (30.02, 25.02), (23.83, 19.03), (12.02, 30.02)], [(24.43, 8.43), (16.55, 6.55), (12.72, 16.72), (2.0, 6.2), (19.97, 25.17), (23.83, 24.17), (27.68, 30.98), (29.74, 24.74), (23.83, 18.63), (11.74, 29.74)], [(24.15, 8.15), (16.83, 6.83), (12.43, 16.43), (2.0, 6.6), (19.57, 25.17), (24.11, 24.45), (27.96, 30.7), (29.45, 24.45), (23.83, 18.23), (11.45, 29.45)], [(23.87, 7.87), (16.55, 7.11), (12.15, 16.15), (2.0, 7.0), (19.17, 25.17), (24.4, 24.74), (28.24, 30.42), (29.17, 24.17), (23.83, 17.83), (11.17, 29.17)], [(23.58, 7.58), (16.26, 7.4), (11.87, 15.87), (2.4, 7.0), (18.77, 25.17), (24.68, 25.02), (28.53, 30.13), (28.77, 24.17), (23.83, 17.43), (10.77, 29.17)], [(23.3, 7.3), (15.98, 7.68), (11.58, 15.58), (2.8, 7.0), (18.37, 25.17), (24.96, 25.3), (28.81, 29.85), (28.37, 24.17), (23.83, 17.03), (10.37, 29.17)], [(23.02, 7.02), (15.7, 7.96), (11.3, 15.3), (3.2, 7.0), (17.97, 25.17), (25.24, 25.58), (29.09, 29.57), (27.97, 24.17), (23.83, 16.63), (9.97, 29.17)], [(22.74, 6.74), (15.42, 8.25), (11.02, 15.02), (3.6, 7.0), (17.57, 25.17), (25.53, 25.87), (29.38, 29.28), (27.57, 24.17), (23.83, 16.23), (9.57, 29.17)], [(22.45, 6.45), (15.13, 8.53), (10.74, 14.74), (4.0, 7.0), (17.17, 25.17), (25.81, 26.15), (29.66, 29.0), (27.17, 24.17), (23.83, 15.83), (9.17, 29.17)], [(22.17, 6.17), (14.85, 8.81), (10.45, 14.45), (4.4, 7.0), (16.89, 24.89), (26.09, 26.43), (29.94, 29.28), (26.77, 24.17), (24.23, 15.83), (8.77, 29.17)], [(21.89, 5.89), (14.57, 9.09), (10.17, 14.17), (4.8, 7.0), (16.6, 24.6), (26.38, 26.72), (30.23, 29.57), (26.37, 24.17), (24.63, 15.83), (8.37, 29.17)], [(21.6, 5.6), (14.28, 9.38), (9.89, 13.89), (5.2, 7.0), (16.32, 24.32), (26.66, 27.0), (30.51, 29.85), (25.97, 24.17), (25.03, 15.83), (7.97, 29.17)], [(21.32, 5.32), (14.0, 9.66), (9.6, 13.6), (5.6, 7.0), (16.04, 24.04), (26.66, 26.6), (30.79, 30.13), (25.57, 24.17), (25.43, 15.83), (7.57, 29.17)], [(21.04, 5.04), (14.28, 9.94), (9.32, 13.32), (6.0, 7.0), (15.76, 23.76), (26.66, 26.2), (31.07, 30.42), (25.17, 24.17), (25.83, 15.83), (7.17, 29.17)], [(20.76, 4.76), (14.57, 10.23), (9.04, 13.04), (6.4, 7.0), (15.47, 23.47), (26.66, 25.8), (31.36, 30.7), (25.45, 24.45), (26.23, 15.83), (7.17, 28.77)]]","[(22.42, 18.42), (22.7, 18.7), (22.98, 18.98), (23.26, 19.26), (23.55, 19.55), (23.83, 19.83), (23.83, 19.43), (23.83, 19.03), (23.83, 18.63), (23.83, 18.23), (23.83, 17.83), (23.83, 17.43), (23.83, 17.03), (23.83, 16.63), (23.83, 16.23), (23.83, 15.83), (24.23, 15.83), (24.63, 15.83), (25.03, 15.83), (25.43, 15.83), (25.83, 15.83), (26.23, 15.83)]",232.64,,,0.538
dynamic task,kh8_dt4,25,0,0,0,1,0.8907349333335333,10,"[[(22.0, 2.0), (4.87, 16.87), (26.15, 10.15), (3.0, 4.4), (8.0, 28.0), (28.6, 19.0), (4.28, 24.28), (25.57, 25.57), (14.0, 24.4), (25.15, 22.85)], [(22.0, 2.4), (4.58, 16.58), (25.87, 9.87), (3.0, 4.8), (8.4, 28.0), (28.2, 19.0), (4.57, 24.57), (25.85, 25.85), (14.0, 24.0), (24.87, 23.13)], [(22.0, 2.8), (4.3, 16.3), (25.58, 9.59), (3.0, 5.2), (8.8, 28.0), (27.8, 19.0), (4.85, 24.85), (26.13, 26.13), (14.0, 23.6), (24.58, 23.42)], [(22.0, 3.2), (4.02, 16.02), (25.3, 9.3), (3.0, 5.6), (9.2, 28.0), (27.4, 19.0), (5.13, 25.13), (26.42, 26.42), (14.0, 23.2), (24.3, 23.7)], [(22.0, 3.6), (3.74, 15.74), (25.02, 9.02), (3.0, 6.0), (9.6, 28.0), (27.0, 19.0), (5.42, 25.42), (26.7, 26.7), (14.0, 22.8), (24.02, 23.98)], [(22.0, 4.0), (3.45, 15.45), (24.74, 8.74), (3.0, 6.4), (10.0, 28.0), (26.6, 19.0), (5.7, 25.7), (26.98, 26.98), (14.0, 22.4), (23.74, 24.26)], [(22.0, 4.4), (3.17, 15.17), (24.45, 8.45), (3.0, 6.8), (9.72, 28.28), (26.2, 19.0), (5.98, 25.98), (27.26, 27.26), (14.0, 22.0), (23.45, 24.55)], [(22.0, 4.8), (3.57, 15.17), (24.17, 8.17), (3.0, 7.2), (9.43, 28.57), (25.8, 19.0), (6.26, 26.26), (27.55, 27.55), (13.72, 21.72), (23.17, 24.83)], [(22.0, 5.2), (3.97, 15.17), (23.89, 8.45), (3.0, 7.6), (9.15, 28.85), (25.4, 19.0), (6.55, 26.55), (27.83, 27.83), (13.43, 21.43), (22.77, 24.83)], [(22.0, 5.6), (4.37, 15.17), (23.6, 8.74), (3.0, 8.0), (8.87, 29.13), (25.0, 19.0), (6.83, 26.83), (27.43, 27.83), (13.15, 21.15), (22.37, 24.83)], [(22.0, 6.0), (4.77, 15.17), (23.32, 9.02), (3.28, 8.28), (8.59, 29.42), (25.0, 19.4), (7.11, 27.11), (27.03, 27.83), (12.87, 20.87), (21.97, 24.83)], [(22.4, 6.0), (5.17, 15.17), (23.04, 9.3), (3.57, 8.57), (8.3, 29.7), (25.0, 19.8), (7.4, 27.4), (26.63, 27.83), (12.58, 20.58), (21.57, 24.83)], [(22.8, 6.0), (5.57, 15.17), (22.76, 9.59), (3.85, 8.85), (8.02, 29.98), (25.0, 20.2), (7.68, 27.68), (26.23, 27.83), (12.3, 20.3), (21.17, 24.83)], [(23.2, 6.0), (5.97, 15.17), (22.47, 9.87), (4.13, 9.13), (7.74, 30.26), (25.0, 20.6), (7.96, 27.96), (25.83, 27.83), (12.02, 20.02), (20.77, 24.83)], [(23.6, 6.0), (6.37, 15.17), (22.19, 10.15), (4.42, 9.41), (7.45, 30.55), (25.0, 21.0), (8.25, 28.24), (25.43, 27.83), (11.74, 19.74), (20.37, 24.83)]]",,0.0,,,1.998
dynamic task,kh8_dt4,26,0,0,0,1,1.8218080711112634,10,"[[(17.15, 13.85), (27.72, 3.28), (2.57, 22.43), (23.0, 23.0), (21.87, 19.13), (22.42, 24.58), (9.41, 28.58), (11.0, 11.0), (23.43, 24.43), (31.15, 11.15)], [(16.87, 14.13), (27.43, 3.57), (2.85, 22.15), (22.6, 23.0), (21.58, 19.42), (22.7, 24.3), (9.7, 28.3), (11.0, 10.6), (23.15, 24.15), (30.87, 10.87)], [(16.58, 14.42), (27.15, 3.85), (3.13, 21.87), (22.2, 23.0), (21.3, 19.7), (22.98, 24.02), (9.98, 28.02), (11.0, 10.2), (22.87, 23.87), (30.58, 10.58)], [(16.3, 14.7), (26.87, 4.13), (3.42, 21.58), (21.8, 23.0), (21.02, 19.98), (23.26, 23.74), (10.26, 27.74), (11.0, 9.8), (22.58, 23.58), (30.3, 10.3)], [(16.02, 14.98), (26.58, 4.42), (3.7, 21.3), (21.4, 23.0), (20.74, 20.26), (23.55, 23.45), (10.55, 27.45), (11.0, 9.4), (22.3, 23.3), (30.02, 10.02)], [(15.74, 15.26), (26.3, 4.7), (3.98, 21.02), (21.0, 23.0), (20.45, 20.55), (23.83, 23.17), (10.83, 27.17), (11.0, 9.0), (22.02, 23.02), (29.74, 9.74)], [(15.45, 15.55), (26.02, 4.98), (4.26, 20.74), (21.0, 23.4), (20.17, 20.83), (23.83, 23.57), (10.83, 26.77), (11.0, 8.6), (21.74, 22.74), (29.45, 9.45)], [(15.17, 15.83), (25.74, 5.26), (4.55, 20.45), (21.0, 23.8), (19.89, 21.11), (23.83, 23.97), (10.83, 26.37), (11.0, 8.2), (21.45, 22.45), (29.17, 9.17)], [(15.17, 15.43), (25.45, 5.55), (4.83, 20.17), (21.0, 24.2), (19.6, 21.4), (23.83, 24.37), (10.83, 25.97), (11.0, 7.8), (21.17, 22.17), (29.45, 8.89)], [(15.17, 15.03), (25.17, 5.83), (4.55, 19.89), (21.0, 24.6), (19.32, 21.68), (23.83, 24.77), (10.83, 25.57), (11.0, 7.4), (20.77, 22.17), (29.74, 8.6)], [(15.17, 14.63), (24.89, 5.55), (4.26, 19.6), (21.0, 25.0), (19.04, 21.96), (23.83, 25.17), (10.83, 25.17), (11.0, 7.0), (20.37, 22.17), (30.02, 8.32)], [(15.17, 14.23), (24.6, 5.26), (3.98, 19.32), (21.0, 25.4), (18.76, 22.24), (23.83, 25.57), (10.83, 24.77), (10.72, 6.72), (19.97, 22.17), (30.3, 8.04)], [(15.17, 13.83), (24.32, 4.98), (3.7, 19.04), (21.0, 25.8), (18.47, 22.53), (23.83, 25.97), (10.83, 24.37), (10.43, 6.43), (19.57, 22.17), (30.58, 7.76)], [(15.17, 13.43), (24.04, 4.7), (3.42, 18.76), (21.0, 26.2), (18.19, 22.81), (23.83, 26.37), (10.83, 23.97), (10.15, 6.15), (19.17, 22.17), (30.87, 7.47)], [(15.17, 13.03), (23.76, 4.42), (3.13, 18.47), (21.0, 26.6), (17.91, 23.09), (23.83, 26.77), (10.83, 23.57), (9.87, 5.87), (18.77, 22.17), (31.15, 7.19)], [(15.17, 12.63), (23.47, 4.13), (2.85, 18.19), (21.0, 27.0), (17.62, 23.38), (23.83, 27.17), (10.83, 23.17), (9.59, 5.58), (18.37, 22.17), (31.43, 6.91)], [(15.17, 12.23), (23.19, 3.85), (2.57, 17.91), (21.28, 26.72), (17.34, 23.66), (24.23, 27.17), (10.55, 22.89), (9.3, 5.3), (17.97, 22.17), (31.72, 6.62)], [(15.17, 11.83), (22.91, 3.57), (2.28, 17.62), (21.57, 26.43), (17.06, 23.94), (24.63, 27.17), (10.26, 22.6), (9.02, 5.02), (17.57, 22.17), (32.0, 6.34)], [(14.89, 12.11), (22.62, 3.28), (2.0, 17.34), (21.85, 26.15), (16.77, 24.23), (25.03, 27.17), (9.98, 22.32), (8.74, 4.74), (17.17, 22.17), (31.72, 6.06)], [(14.6, 12.4), (22.34, 3.0), (2.0, 16.94), (22.13, 25.87), (16.49, 24.51), (25.43, 27.17), (9.7, 22.04), (8.45, 4.45), (16.89, 22.45), (31.43, 5.77)], [(14.32, 12.68), (22.06, 3.28), (2.0, 16.54), (22.42, 25.58), (16.21, 24.79), (25.83, 27.17), (9.41, 21.76), (8.17, 4.17), (16.6, 22.74), (31.15, 5.49)], [(14.04, 12.96), (21.77, 3.57), (2.0, 16.14), (22.7, 25.3), (15.93, 25.07), (26.23, 27.17), (9.13, 21.47), (8.57, 4.17), (16.32, 23.02), (30.87, 5.21)], [(13.76, 13.24), (21.49, 3.85), (2.0, 15.74), (22.98, 25.02), (15.64, 25.36), (26.63, 27.17), (8.85, 21.19), (8.97, 4.17), (16.04, 23.3), (30.58, 4.92)], [(13.47, 13.53), (21.21, 4.13), (2.0, 15.34), (23.26, 24.74), (15.36, 25.64), (27.03, 27.17), (8.57, 20.91), (9.37, 4.17), (15.76, 23.58), (30.3, 4.64)], [(13.19, 13.81), (20.93, 4.42), (2.0, 14.94), (23.55, 24.45), (15.08, 25.92), (27.43, 27.17), (8.28, 20.62), (9.77, 4.17), (15.47, 23.87), (30.02, 4.36)], [(12.91, 14.09), (20.64, 4.7), (2.0, 14.54), (23.83, 24.17), (14.79, 26.21), (27.83, 27.17), (8.0, 20.34), (10.17, 4.17), (15.19, 24.15), (29.74, 4.08)], [(12.62, 14.38), (20.36, 4.98), (2.0, 14.14), (23.83, 23.77), (14.51, 26.49), (27.83, 27.57), (8.4, 20.34), (10.57, 4.17), (14.91, 24.43), (29.45, 3.79)], [(12.34, 14.66), (20.08, 5.26), (2.0, 13.74), (23.83, 23.37), (14.11, 26.49), (27.83, 27.97), (8.8, 20.34), (10.97, 4.17), (14.62, 24.72), (29.17, 3.51)], [(12.06, 14.38), (19.79, 5.55), (2.0, 13.34), (23.83, 22.97), (13.71, 26.49), (27.83, 28.37), (9.2, 20.34), (11.37, 4.17), (14.34, 25.0), (28.77, 3.51)], [(11.77, 14.09), (19.51, 5.83), (2.4, 13.34), (23.83, 22.57), (13.31, 26.49), (27.83, 28.77), (9.6, 20.34), (11.77, 4.17), (14.62, 25.28), (28.37, 3.51)], [(11.49, 13.81), (19.11, 5.83), (2.8, 13.34), (23.83, 22.17), (12.91, 26.49), (27.83, 29.17), (10.0, 20.34), (12.17, 4.17), (14.91, 25.57), (27.97, 3.51)], [(11.21, 13.53), (18.71, 5.83), (3.2, 13.34), (23.83, 21.77), (12.51, 26.49), (27.83, 29.57), (10.4, 20.34), (12.45, 4.45), (15.19, 25.85), (27.57, 3.51)], [(10.92, 13.24), (18.31, 5.83), (3.6, 13.34), (23.83, 21.37), (12.11, 26.49), (27.83, 29.97), (10.8, 20.34), (12.74, 4.74), (15.47, 26.13), (27.17, 3.51)], [(10.64, 12.96), (17.91, 5.83), (4.0, 13.34), (23.83, 20.97), (11.71, 26.49), (27.83, 30.37), (11.2, 20.34), (13.02, 5.02), (15.76, 26.42), (26.77, 3.51)]]",,0.0,,,0.818
dynamic task,kh8_dt4,27,0,0,0,1,1.1361345422224076,10,"[[(22.0, 20.0), (12.6, 32.0), (31.0, 27.0), (31.43, 14.43), (11.0, 25.0), (15.0, 22.4), (15.0, 5.0), (19.13, 6.13), (2.85, 7.15), (24.0, 22.0)], [(22.0, 19.6), (13.0, 32.0), (30.72, 27.28), (31.15, 14.15), (11.0, 25.4), (15.0, 22.8), (14.6, 5.0), (19.42, 6.42), (3.13, 6.87), (24.28, 22.28)], [(22.0, 19.2), (13.4, 32.0), (30.43, 27.57), (30.87, 13.87), (11.0, 25.8), (15.0, 23.2), (14.2, 5.0), (19.7, 6.7), (3.42, 6.58), (24.57, 22.57)], [(22.0, 18.8), (13.8, 32.0), (30.15, 27.85), (30.58, 13.58), (11.0, 26.2), (15.0, 23.6), (13.8, 5.0), (19.98, 6.98), (3.7, 6.3), (24.85, 22.85)], [(22.0, 18.4), (14.2, 32.0), (29.87, 28.13), (30.3, 13.3), (11.0, 26.6), (15.0, 24.0), (13.4, 5.0), (20.26, 7.26), (3.98, 6.02), (25.13, 23.13)], [(22.0, 18.0), (14.6, 32.0), (29.58, 28.42), (30.02, 13.02), (11.0, 27.0), (15.0, 24.4), (13.0, 5.0), (20.55, 7.55), (4.26, 5.74), (25.42, 23.42)], [(22.0, 17.6), (15.0, 32.0), (29.3, 28.7), (29.74, 12.74), (10.72, 27.28), (15.0, 24.8), (12.6, 5.0), (20.83, 7.83), (4.55, 5.45), (25.7, 23.7)], [(22.0, 17.2), (14.72, 31.72), (29.02, 28.98), (29.45, 12.45), (10.43, 27.57), (15.0, 25.2), (12.2, 5.0), (21.11, 7.55), (4.83, 5.17), (25.98, 23.98)], [(22.0, 16.8), (14.43, 31.43), (28.74, 29.26), (29.17, 12.17), (10.15, 27.85), (15.0, 25.6), (11.8, 5.0), (21.4, 7.26), (5.11, 5.45), (26.26, 24.26)], [(22.0, 16.4), (14.15, 31.15), (28.45, 29.55), (28.89, 12.45), (9.87, 28.13), (15.0, 26.0), (11.4, 5.0), (21.68, 6.98), (5.4, 5.74), (26.55, 24.55)], [(22.0, 16.0), (13.87, 30.87), (28.17, 29.83), (28.6, 12.74), (9.59, 28.42), (14.6, 26.0), (11.0, 5.0), (21.96, 6.7), (5.68, 6.02), (26.83, 24.83)], [(21.72, 15.72), (13.58, 30.58), (28.45, 30.11), (28.32, 13.02), (9.3, 28.7), (14.2, 26.0), (11.28, 5.28), (22.24, 6.42), (5.96, 6.3), (26.83, 25.23)], [(21.43, 15.43), (13.3, 30.3), (28.74, 30.4), (28.04, 13.3), (9.02, 28.98), (13.8, 26.0), (11.57, 5.57), (22.53, 6.13), (6.24, 6.58), (26.83, 25.63)], [(21.15, 15.15), (13.02, 30.02), (29.02, 30.68), (27.76, 13.58), (8.74, 29.26), (13.4, 26.0), (11.85, 5.85), (22.81, 5.85), (6.53, 6.87), (26.83, 26.03)], [(20.87, 14.87), (12.74, 29.74), (29.3, 30.96), (27.47, 13.87), (8.45, 29.55), (13.0, 26.0), (12.13, 6.13), (23.09, 5.57), (6.81, 7.15), (26.83, 26.43)], [(20.58, 14.58), (12.45, 29.45), (29.58, 31.24), (27.19, 14.15), (8.17, 29.83), (12.6, 26.0), (12.42, 6.42), (23.38, 5.28), (7.09, 7.43), (26.83, 26.83)], [(20.3, 14.3), (12.17, 29.17), (29.87, 31.53), (26.91, 14.43), (7.77, 29.83), (12.2, 26.0), (12.7, 6.7), (23.66, 5.0), (7.38, 7.72), (26.83, 27.23)], [(20.02, 14.02), (12.17, 28.77), (30.15, 31.81), (26.62, 14.72), (7.37, 29.83), (11.8, 26.0), (12.98, 6.98), (23.38, 4.72), (7.66, 8.0), (26.83, 27.63)], [(19.74, 13.74), (12.17, 28.37), (30.43, 32.09), (26.34, 15.0), (6.97, 29.83), (11.4, 26.0), (13.26, 7.26), (23.09, 4.43), (7.66, 7.6), (26.83, 28.03)], [(19.45, 13.45), (12.17, 27.97), (30.72, 32.38), (26.06, 14.72), (6.57, 29.83), (11.0, 26.0), (13.55, 7.55), (22.81, 4.15), (7.66, 7.2), (26.83, 28.43)]]",,0.0,,,2.296
dynamic task,kh8_dt4,28,1,0,0,0,0.8337976888888079,10,"[[(32.0, 29.0), (12.0, 3.0), (20.15, 6.15), (24.4, 28.0), (31.0, 3.0), (13.85, 19.85), (17.58, 10.42), (22.42, 4.42), (21.0, 6.2), (21.58, 31.42)], [(32.0, 28.6), (12.4, 3.0), (19.87, 5.87), (24.8, 28.0), (30.6, 3.0), (14.13, 20.13), (17.3, 10.7), (22.7, 4.7), (21.0, 6.6), (21.3, 31.7)], [(32.0, 28.2), (12.8, 3.0), (19.58, 5.58), (25.2, 28.0), (30.2, 3.0), (14.42, 20.42), (17.02, 10.98), (22.98, 4.98), (21.0, 7.0), (21.02, 31.98)], [(32.0, 27.8), (13.2, 3.0), (19.3, 5.3), (25.6, 28.0), (29.8, 3.0), (14.7, 20.7), (16.74, 11.26), (23.26, 5.26), (21.0, 7.4), (20.74, 32.26)], [(32.0, 27.4), (13.6, 3.0), (19.02, 5.02), (26.0, 28.0), (29.4, 3.0), (14.98, 20.98), (16.45, 11.55), (23.55, 5.55), (21.0, 7.8), (20.45, 32.55)], [(32.0, 27.0), (14.0, 3.0), (18.74, 4.74), (26.4, 28.0), (29.0, 3.0), (15.26, 21.26), (16.17, 11.83), (23.83, 5.83), (21.0, 8.2), (20.17, 32.83)], [(32.0, 26.6), (14.4, 3.0), (18.45, 4.45), (26.8, 28.0), (28.6, 3.0), (15.55, 21.55), (15.89, 12.11), (23.55, 6.11), (21.0, 8.6), (19.77, 32.83)], [(32.0, 26.2), (14.8, 3.0), (18.17, 4.17), (27.2, 28.0), (28.2, 3.0), (15.83, 21.83), (15.6, 12.4), (23.26, 6.4), (21.0, 9.0), (19.37, 32.83)], [(32.0, 25.8), (15.2, 3.0), (17.89, 4.45), (27.6, 28.0), (27.8, 3.0), (16.23, 21.83), (15.32, 12.68), (22.98, 6.68), (20.72, 9.28), (18.97, 32.83)], [(32.0, 25.4), (15.6, 3.0), (17.6, 4.74), (28.0, 28.0), (27.4, 3.0), (16.63, 21.83), (15.04, 12.96), (22.7, 6.96), (20.43, 9.57), (18.57, 32.83)], [(32.0, 25.0), (16.0, 3.0), (17.32, 5.02), (27.72, 28.28), (27.0, 3.0), (17.03, 21.83), (14.76, 13.24), (22.42, 7.24), (20.15, 9.85), (18.17, 32.83)], [(32.0, 24.6), (16.4, 3.0), (17.04, 5.3), (27.43, 28.57), (26.6, 3.0), (17.43, 21.83), (14.47, 13.53), (22.13, 7.53), (19.87, 10.13), (17.77, 32.83)], [(32.0, 24.2), (16.8, 3.0), (16.76, 5.58), (27.15, 28.85), (26.2, 3.0), (17.83, 21.83), (14.19, 13.81), (21.85, 7.81), (19.58, 10.42), (17.37, 32.83)], [(32.0, 23.8), (17.2, 3.0), (16.47, 5.87), (26.87, 29.13), (25.8, 3.0), (18.23, 21.83), (13.91, 14.09), (21.57, 8.09), (19.3, 10.7), (16.97, 32.83)]]","[(20.15, 6.15), (19.87, 5.87), (19.58, 5.58), (19.3, 5.3), (19.02, 5.02), (18.74, 4.74), (18.45, 4.45), (18.17, 4.17), (17.89, 4.45), (17.6, 4.74), (17.32, 5.02), (17.04, 5.3), (16.76, 5.58), (16.47, 5.87)]",212.61,,,2.153
dynamic task,kh8_dt4,29,1,0,1,1,0.7449986844444538,10,"[[(28.4, 12.0), (17.0, 12.0), (28.4, 14.0), (17.4, 10.0), (19.0, 13.0), (32.0, 5.2), (16.87, 24.87), (28.8, 26.0), (5.13, 7.87), (26.43, 16.57)], [(28.8, 12.0), (17.4, 12.0), (28.0, 14.0), (17.0, 10.0), (19.0, 13.4), (32.0, 5.6), (16.58, 24.58), (28.4, 26.0), (5.42, 7.58), (26.15, 16.85)], [(29.2, 12.0), (17.8, 12.0), (27.6, 14.0), (16.6, 10.0), (19.0, 13.8), (32.0, 6.0), (16.3, 24.3), (28.0, 26.0), (5.7, 7.3), (25.87, 17.13)], [(29.6, 12.0), (18.2, 12.0), (27.2, 14.0), (16.2, 10.0), (19.0, 14.2), (32.0, 6.4), (16.02, 24.02), (27.6, 26.0), (5.98, 7.02), (25.58, 17.42)], [(30.0, 12.0), (18.6, 12.0), (26.8, 14.0), (15.8, 10.0), (19.0, 14.6), (32.0, 6.8), (15.74, 23.74), (27.2, 26.0), (6.26, 6.74), (25.3, 17.7)], [(30.4, 12.0), (19.0, 12.0), (26.4, 14.0), (15.4, 10.0), (19.0, 15.0), (32.0, 7.2), (15.45, 23.45), (26.8, 26.0), (6.55, 6.45), (25.02, 17.98)], [(30.8, 12.0), (19.4, 12.0), (26.0, 14.0), (15.0, 10.0), (19.0, 15.4), (32.0, 7.6), (15.17, 23.17), (26.4, 26.0), (6.83, 6.17), (24.74, 18.26)], [(31.2, 12.0), (19.8, 12.0), (26.0, 13.6), (15.28, 9.72), (19.0, 15.8), (32.0, 8.0), (14.89, 23.45), (26.0, 26.0), (6.83, 6.57), (24.45, 18.55)], [(31.6, 12.0), (20.2, 12.0), (26.0, 13.2), (15.57, 9.43), (19.0, 16.2), (32.0, 8.4), (14.6, 23.74), (26.28, 26.28), (6.83, 6.97), (24.17, 18.83)], [(32.0, 12.0), (20.6, 12.0), (26.0, 12.8), (15.85, 9.15), (19.0, 16.6), (32.0, 8.8), (14.32, 24.02), (26.57, 26.57), (6.83, 7.37), (23.89, 18.55)], [(32.0, 12.4), (21.0, 12.0), (26.0, 12.4), (16.13, 8.87), (19.0, 17.0), (32.0, 9.2), (14.04, 24.3), (26.85, 26.85), (6.83, 7.77), (23.6, 18.26)], [(32.0, 12.8), (21.28, 12.28), (26.0, 12.0), (16.42, 8.59), (19.0, 17.4), (32.0, 9.6), (13.76, 24.58), (27.13, 27.13), (6.83, 8.17), (23.32, 17.98)]]","[(19.0, 13.0), (19.0, 13.4), (19.0, 13.8), (19.0, 14.2), (19.0, 14.6), (19.0, 15.0), (19.0, 15.4), (19.0, 15.8), (19.0, 16.2), (19.0, 16.6), (19.0, 17.0), (19.0, 17.4)]",198.39,,,1.483
dynamic task,kh8_dt4,30,1,0,1,1,0.9218759111113286,10,"[[(22.58, 26.42), (19.87, 30.87), (32.0, 9.0), (15.58, 4.42), (7.58, 18.42), (5.0, 26.0), (30.0, 22.0), (24.87, 30.13), (28.57, 14.43), (4.57, 18.43)], [(22.3, 26.7), (19.58, 30.58), (32.0, 8.6), (15.3, 4.7), (7.3, 18.7), (4.72, 25.72), (30.4, 22.0), (24.58, 30.42), (28.85, 14.15), (4.85, 18.15)], [(22.02, 26.98), (19.3, 30.3), (32.0, 8.2), (15.02, 4.98), (7.02, 18.98), (4.43, 25.43), (30.8, 22.0), (24.3, 30.7), (29.13, 13.87), (5.13, 17.87)], [(21.74, 27.26), (19.02, 30.02), (32.0, 7.8), (14.74, 5.26), (6.74, 19.26), (4.15, 25.15), (31.2, 22.0), (24.02, 30.98), (29.42, 13.58), (5.42, 17.58)], [(21.45, 27.55), (18.74, 29.74), (32.0, 7.4), (14.45, 5.55), (6.45, 19.55), (3.87, 24.87), (31.6, 22.0), (23.74, 31.26), (29.7, 13.3), (5.7, 17.3)], [(21.17, 27.83), (18.45, 29.45), (32.0, 7.0), (14.17, 5.83), (6.17, 19.83), (3.58, 24.58), (32.0, 22.0), (23.45, 31.55), (29.98, 13.02), (5.98, 17.02)], [(20.89, 27.55), (18.17, 29.17), (31.6, 7.0), (13.89, 5.55), (6.17, 20.23), (3.3, 24.3), (32.0, 22.4), (23.17, 31.83), (30.26, 12.74), (6.26, 16.74)], [(20.6, 27.26), (18.45, 28.89), (31.2, 7.0), (13.6, 5.26), (6.17, 20.63), (3.02, 24.02), (32.0, 22.8), (23.17, 31.43), (30.55, 12.45), (6.55, 16.45)], [(20.32, 26.98), (18.74, 28.6), (30.8, 7.0), (13.32, 4.98), (6.17, 21.03), (2.74, 23.74), (32.0, 23.2), (23.17, 31.03), (30.83, 12.17), (6.83, 16.17)], [(20.04, 26.7), (19.02, 28.32), (30.4, 7.0), (13.04, 4.7), (6.17, 21.43), (2.45, 23.45), (32.0, 23.6), (23.17, 30.63), (30.83, 11.77), (6.43, 16.17)], [(19.76, 26.42), (19.3, 28.04), (30.0, 7.0), (12.76, 4.42), (6.17, 21.83), (2.17, 23.17), (32.0, 24.0), (23.17, 30.23), (30.83, 11.37), (6.03, 16.17)], [(19.47, 26.13), (19.58, 27.76), (29.6, 7.0), (12.47, 4.13), (6.17, 22.23), (2.45, 22.89), (32.0, 24.4), (23.17, 29.83), (30.83, 10.97), (5.63, 16.17)], [(19.19, 25.85), (19.87, 27.47), (29.2, 7.0), (12.19, 3.85), (6.17, 22.63), (2.74, 22.6), (32.0, 24.8), (23.17, 29.43), (30.83, 10.57), (5.23, 16.17)], [(18.91, 25.57), (20.15, 27.19), (28.8, 7.0), (11.91, 3.57), (6.17, 23.03), (3.02, 22.32), (32.0, 25.2), (23.17, 29.03), (30.83, 10.17), (4.83, 16.17)], [(18.62, 25.28), (20.43, 26.91), (28.4, 7.0), (11.62, 3.28), (6.17, 23.43), (3.3, 22.04), (32.0, 25.6), (23.17, 28.63), (30.83, 9.77), (4.43, 16.17)], [(18.34, 25.0), (20.72, 26.62), (28.0, 7.0), (11.34, 3.0), (6.17, 23.83), (3.58, 21.76), (32.0, 26.0), (23.17, 28.23), (30.83, 9.37), (4.03, 16.17)]]","[(7.58, 18.42), (7.3, 18.7), (7.02, 18.98), (6.74, 19.26), (6.45, 19.55), (6.17, 19.83), (6.17, 20.23), (6.17, 20.63), (6.17, 21.03), (6.17, 21.43), (6.17, 21.83), (6.17, 22.23), (6.17, 22.63), (6.17, 23.03), (6.17, 23.43), (6.17, 23.83)]",220.12,,,1.183
dynamic task,kh8_dt4,31,1,0,1,1,0.8745187555555276,10,"[[(4.87, 16.13), (5.85, 9.15), (26.6, 26.0), (2.28, 12.72), (9.0, 17.0), (30.43, 7.43), (2.57, 10.57), (7.28, 2.28), (10.58, 21.42), (17.0, 14.0)], [(4.58, 16.42), (6.13, 8.87), (27.0, 26.0), (2.57, 12.43), (8.6, 17.0), (30.15, 7.15), (2.85, 10.85), (7.57, 2.57), (10.3, 21.7), (16.72, 13.72)], [(4.3, 16.7), (6.42, 8.59), (27.4, 26.0), (2.85, 12.15), (8.2, 17.0), (29.87, 6.87), (3.13, 11.13), (7.85, 2.85), (10.02, 21.98), (16.43, 13.43)], [(4.02, 16.98), (6.7, 8.3), (27.8, 26.0), (3.13, 11.87), (7.8, 17.0), (29.58, 6.58), (3.42, 11.42), (8.13, 3.13), (9.74, 22.26), (16.15, 13.15)], [(3.74, 17.26), (6.98, 8.02), (28.2, 26.0), (3.42, 11.58), (7.4, 17.0), (29.3, 6.3), (3.7, 11.7), (8.41, 3.42), (9.45, 22.55), (15.87, 12.87)], [(3.45, 17.55), (7.26, 7.74), (28.6, 26.0), (3.7, 11.3), (7.0, 17.0), (29.02, 6.02), (3.98, 11.98), (8.7, 3.7), (9.17, 22.83), (15.58, 12.58)], [(3.17, 17.83), (7.55, 7.45), (29.0, 26.0), (3.98, 11.02), (6.6, 17.0), (28.74, 5.74), (4.26, 12.26), (8.98, 3.98), (8.89, 22.55), (15.3, 12.3)], [(3.17, 17.43), (7.83, 7.17), (28.72, 25.72), (4.26, 10.74), (6.2, 17.0), (28.45, 5.45), (4.55, 12.55), (9.26, 4.26), (8.6, 22.26), (15.02, 12.02)], [(3.17, 17.03), (8.11, 6.89), (28.43, 25.43), (4.55, 10.45), (5.8, 17.0), (28.17, 5.17), (4.83, 12.83), (9.55, 4.55), (8.32, 21.98), (14.74, 11.74)], [(3.17, 16.63), (8.4, 6.6), (28.15, 25.15), (4.83, 10.17), (5.4, 17.0), (28.45, 4.89), (4.55, 13.11), (9.83, 4.83), (8.04, 21.7), (14.45, 11.45)], [(3.17, 16.23), (8.68, 6.32), (27.87, 24.87), (4.55, 9.89), (5.0, 17.0), (28.74, 4.6), (4.26, 13.4), (9.43, 4.83), (7.76, 21.42), (14.17, 11.17)], [(3.17, 15.83), (8.96, 6.04), (27.58, 24.58), (4.26, 9.6), (5.28, 16.72), (29.02, 4.32), (3.98, 13.68), (9.03, 4.83), (7.47, 21.13), (14.45, 10.89)], [(3.17, 15.43), (9.25, 5.76), (27.3, 24.3), (3.98, 9.32), (5.57, 16.43), (29.3, 4.04), (3.7, 13.96), (8.63, 4.83), (7.19, 20.85), (14.74, 10.6)], [(3.17, 15.03), (9.53, 5.47), (27.02, 24.02), (3.7, 9.04), (5.85, 16.15), (29.58, 3.76), (3.42, 14.24), (8.23, 4.83), (6.91, 20.57), (15.02, 10.32)], [(3.17, 14.63), (9.81, 5.19), (26.74, 23.74), (3.42, 8.75), (6.13, 15.87), (29.87, 3.47), (3.13, 14.53), (7.83, 4.83), (6.62, 20.28), (15.3, 10.04)]]","[(17.0, 14.0), (16.72, 13.72), (16.43, 13.43), (16.15, 13.15), (15.87, 12.87), (15.58, 12.58), (15.3, 12.3), (15.02, 12.02), (14.74, 11.74), (14.45, 11.45), (14.17, 11.17), (14.45, 10.89), (14.74, 10.6), (15.02, 10.32), (15.3, 10.04)]",213.04,,,2.256
dynamic task,kh8_dt4,32,0,0,0,1,1.6348808533334704,10,"[[(2.8, 19.0), (5.0, 14.0), (4.0, 3.0), (28.57, 19.57), (22.4, 22.0), (5.0, 21.0), (9.0, 21.0), (12.6, 16.0), (20.0, 27.2), (6.8, 20.0)], [(3.2, 19.0), (4.6, 14.0), (4.4, 3.0), (28.85, 19.85), (22.8, 22.0), (4.6, 21.0), (9.4, 21.0), (12.2, 16.0), (20.0, 27.6), (6.4, 20.0)], [(3.6, 19.0), (4.2, 14.0), (4.8, 3.0), (29.13, 20.13), (23.2, 22.0), (4.2, 21.0), (9.8, 21.0), (11.8, 16.0), (20.0, 28.0), (6.0, 20.0)], [(4.0, 19.0), (3.8, 14.0), (5.2, 3.0), (29.42, 20.42), (23.6, 22.0), (3.8, 21.0), (10.2, 21.0), (11.4, 16.0), (20.0, 28.4), (5.6, 20.0)], [(4.4, 19.0), (3.4, 14.0), (5.6, 3.0), (29.7, 20.7), (24.0, 22.0), (3.4, 21.0), (10.6, 21.0), (11.0, 16.0), (20.0, 28.8), (5.2, 20.0)], [(4.8, 19.0), (3.0, 14.0), (6.0, 3.0), (29.98, 20.98), (24.4, 22.0), (3.0, 21.0), (11.0, 21.0), (10.6, 16.0), (20.0, 29.2), (4.8, 20.0)], [(5.2, 19.0), (3.28, 13.72), (6.4, 3.0), (30.26, 21.26), (24.8, 22.0), (3.28, 20.72), (11.4, 21.0), (10.2, 16.0), (20.0, 29.6), (4.4, 20.0)], [(5.6, 19.0), (3.57, 13.43), (6.8, 3.0), (30.55, 21.55), (25.2, 22.0), (3.57, 20.43), (11.8, 21.0), (9.8, 16.0), (20.0, 30.0), (4.0, 20.0)], [(6.0, 19.0), (3.85, 13.15), (7.2, 3.0), (30.83, 21.83), (25.6, 22.0), (3.85, 20.15), (12.2, 21.0), (9.4, 16.0), (20.28, 29.72), (4.28, 20.28)], [(6.0, 19.4), (4.13, 12.87), (7.6, 3.0), (30.43, 21.83), (26.0, 22.0), (4.13, 19.87), (12.6, 21.0), (9.0, 16.0), (20.57, 29.43), (4.57, 20.57)], [(6.0, 19.8), (4.42, 12.58), (8.0, 3.0), (30.03, 21.83), (26.0, 21.6), (4.42, 19.58), (13.0, 21.0), (8.6, 16.0), (20.85, 29.15), (4.85, 20.85)], [(6.0, 20.2), (4.7, 12.3), (7.72, 3.28), (29.63, 21.83), (26.0, 21.2), (4.7, 19.3), (13.0, 20.6), (8.2, 16.0), (21.13, 28.87), (5.13, 21.13)], [(6.0, 20.6), (4.98, 12.02), (7.43, 3.57), (29.23, 21.83), (26.0, 20.8), (4.98, 19.02), (13.0, 20.2), (7.8, 16.0), (21.42, 28.58), (5.42, 21.42)], [(6.0, 21.0), (5.26, 11.74), (7.15, 3.85), (28.83, 21.83), (26.0, 20.4), (5.26, 18.74), (13.0, 19.8), (7.4, 16.0), (21.7, 28.3), (5.7, 21.7)], [(6.0, 21.4), (5.55, 11.45), (6.87, 4.13), (28.43, 21.83), (26.0, 20.0), (5.55, 18.45), (13.0, 19.4), (7.0, 16.0), (21.98, 28.02), (5.98, 21.98)], [(6.0, 21.8), (5.83, 11.17), (6.58, 4.42), (28.03, 21.83), (26.0, 19.6), (5.83, 18.17), (13.0, 19.0), (6.6, 16.0), (22.26, 27.74), (6.26, 22.26)], [(6.0, 22.2), (6.23, 11.17), (6.3, 4.7), (27.63, 21.83), (26.0, 19.2), (5.83, 17.77), (13.0, 18.6), (6.2, 16.0), (22.55, 27.45), (6.55, 22.55)], [(6.0, 22.6), (6.63, 11.17), (6.02, 4.98), (27.23, 21.83), (26.0, 18.8), (5.83, 17.37), (13.0, 18.2), (5.8, 16.0), (22.83, 27.17), (6.83, 22.83)], [(6.0, 23.0), (7.03, 11.17), (5.74, 5.26), (26.83, 21.83), (26.0, 18.4), (5.83, 16.97), (13.0, 17.8), (5.4, 16.0), (23.11, 26.89), (6.43, 22.83)], [(5.6, 23.0), (7.43, 11.17), (5.45, 5.55), (27.11, 22.11), (26.0, 18.0), (5.83, 16.57), (13.0, 17.4), (5.0, 16.0), (23.4, 26.6), (6.03, 22.83)], [(5.2, 23.0), (7.83, 11.17), (5.17, 5.83), (27.4, 22.4), (26.28, 18.28), (5.83, 16.17), (13.0, 17.0), (5.0, 16.4), (23.68, 26.32), (5.63, 22.83)], [(4.8, 23.0), (8.23, 11.17), (5.45, 6.11), (27.68, 22.68), (26.57, 18.57), (5.83, 15.77), (13.28, 17.28), (5.0, 16.8), (23.96, 26.04), (5.23, 22.83)], [(4.4, 23.0), (8.63, 11.17), (5.74, 6.4), (27.96, 22.96), (26.85, 18.85), (5.83, 15.37), (13.57, 17.57), (5.0, 17.2), (24.24, 25.76), (4.83, 22.83)], [(4.0, 23.0), (9.03, 11.17), (6.02, 6.68), (28.24, 23.24), (27.13, 19.13), (5.83, 14.97), (13.85, 17.85), (5.0, 17.6), (24.53, 25.47), (4.43, 22.83)], [(3.6, 23.0), (9.43, 11.17), (6.3, 6.96), (28.53, 23.53), (27.42, 19.42), (5.83, 14.57), (14.13, 18.13), (5.0, 18.0), (24.81, 25.19), (4.03, 22.83)], [(3.2, 23.0), (9.83, 11.17), (6.58, 7.24), (28.81, 23.81), (27.7, 19.7), (5.83, 14.17), (14.42, 18.42), (5.0, 18.4), (25.09, 24.91), (3.63, 22.83)], [(2.8, 23.0), (9.55, 11.45), (6.87, 7.53), (29.09, 24.09), (27.98, 19.98), (5.55, 13.89), (14.7, 18.7), (5.0, 18.8), (25.38, 24.62), (3.23, 22.83)], [(2.4, 23.0), (9.26, 11.74), (7.15, 7.81), (29.38, 24.38), (28.26, 20.26), (5.26, 13.6), (14.98, 18.98), (5.0, 19.2), (25.66, 24.34), (2.83, 22.83)], [(2.0, 23.0), (8.98, 12.02), (7.43, 8.09), (29.66, 24.66), (28.55, 20.55), (4.98, 13.32), (15.26, 19.26), (5.0, 19.6), (25.38, 24.06), (3.11, 23.11)], [(2.28, 22.72), (8.7, 12.3), (7.72, 8.38), (29.66, 24.26), (28.83, 20.83), (4.7, 13.04), (15.55, 19.55), (5.0, 20.0), (25.09, 23.77), (3.4, 23.4)]]",,0.0,,,1.112
dynamic task,kh8_dt4,33,0,0,0,1,1.2311236266668857,10,"[[(16.58, 26.58), (9.41, 22.58), (27.2, 18.0), (15.0, 10.4), (16.8, 3.0), (20.6, 5.0), (9.13, 3.87), (18.87, 20.13), (11.0, 28.2), (6.0, 31.0)], [(16.3, 26.3), (9.7, 22.3), (27.6, 18.0), (15.0, 10.0), (17.2, 3.0), (20.2, 5.0), (9.41, 3.58), (18.58, 20.42), (11.0, 27.8), (6.28, 30.72)], [(16.02, 26.02), (9.98, 22.02), (28.0, 18.0), (15.0, 9.6), (17.6, 3.0), (19.8, 5.0), (9.7, 3.3), (18.3, 20.7), (11.0, 27.4), (6.57, 30.43)], [(15.74, 25.74), (10.26, 21.74), (28.4, 18.0), (15.0, 9.2), (18.0, 3.0), (19.4, 5.0), (9.98, 3.02), (18.02, 20.98), (11.0, 27.0), (6.85, 30.15)], [(15.45, 25.45), (10.55, 21.45), (28.8, 18.0), (15.0, 8.8), (18.4, 3.0), (19.0, 5.0), (10.26, 2.74), (17.74, 21.26), (11.0, 26.6), (7.13, 29.87)], [(15.17, 25.17), (10.83, 21.17), (29.2, 18.0), (15.0, 8.4), (18.8, 3.0), (18.6, 5.0), (10.55, 2.45), (17.45, 21.55), (11.0, 26.2), (7.42, 29.58)], [(15.17, 25.57), (10.43, 21.17), (29.6, 18.0), (15.0, 8.0), (19.2, 3.0), (18.2, 5.0), (10.83, 2.17), (17.17, 21.83), (11.0, 25.8), (7.7, 29.3)], [(15.17, 25.97), (10.03, 21.17), (30.0, 18.0), (15.28, 7.72), (19.6, 3.0), (17.8, 5.0), (11.11, 2.45), (16.89, 22.11), (11.0, 25.4), (7.98, 29.02)], [(15.17, 26.37), (9.63, 21.17), (30.28, 18.28), (15.57, 7.43), (20.0, 3.0), (17.4, 5.0), (11.4, 2.74), (16.6, 22.4), (11.0, 25.0), (8.26, 28.74)], [(15.17, 26.77), (9.23, 21.17), (30.57, 18.57), (15.85, 7.15), (20.0, 3.4), (17.0, 5.0), (11.68, 3.02), (16.32, 22.68), (10.72, 24.72), (8.55, 28.45)], [(15.17, 27.17), (8.83, 21.17), (30.85, 18.85), (16.13, 6.87), (20.0, 3.8), (17.28, 4.72), (11.96, 3.3), (16.04, 22.96), (10.43, 24.43), (8.83, 28.17)], [(15.17, 27.57), (8.43, 21.17), (31.13, 19.13), (16.42, 6.58), (20.0, 4.2), (17.57, 4.43), (12.24, 3.58), (15.76, 23.24), (10.15, 24.15), (8.83, 27.77)], [(15.17, 27.97), (8.03, 21.17), (31.42, 19.42), (16.7, 6.3), (20.0, 4.6), (17.85, 4.15), (12.53, 3.87), (15.47, 23.53), (9.87, 23.87), (8.83, 27.37)], [(15.17, 28.37), (7.63, 21.17), (31.7, 19.7), (16.98, 6.02), (20.0, 5.0), (18.13, 3.87), (12.81, 4.15), (15.19, 23.81), (9.59, 23.58), (8.83, 26.97)], [(15.17, 28.77), (7.23, 21.17), (31.98, 19.98), (17.26, 5.74), (20.0, 5.4), (18.42, 3.58), (13.09, 4.43), (14.91, 24.09), (9.3, 23.3), (8.83, 26.57)], [(15.17, 29.17), (6.83, 21.17), (32.26, 20.26), (17.55, 5.45), (20.0, 5.8), (18.7, 3.3), (13.38, 4.72), (14.62, 24.38), (9.02, 23.02), (8.83, 26.17)], [(14.89, 29.45), (7.11, 21.45), (32.55, 20.55), (17.83, 5.17), (20.0, 6.2), (18.98, 3.02), (13.66, 5.0), (14.34, 24.66), (8.74, 22.74), (8.83, 25.77)], [(14.6, 29.74), (7.4, 21.74), (32.83, 20.83), (18.11, 4.89), (20.0, 6.6), (19.26, 2.74), (13.94, 5.28), (14.34, 25.06), (8.45, 22.45), (8.83, 25.37)], [(14.32, 30.02), (7.68, 22.02), (32.55, 21.11), (18.4, 4.6), (20.0, 7.0), (19.55, 2.45), (14.23, 5.57), (14.34, 25.46), (8.17, 22.17), (8.83, 24.97)], [(14.04, 30.3), (7.96, 22.3), (32.26, 21.4), (18.68, 4.32), (19.72, 6.72), (19.83, 2.17), (14.51, 5.85), (14.34, 25.86), (7.77, 22.17), (8.83, 24.57)], [(13.76, 30.58), (8.25, 22.58), (31.98, 21.68), (18.96, 4.04), (19.43, 6.43), (19.43, 2.17), (14.79, 6.13), (14.34, 26.26), (7.37, 22.17), (8.83, 24.17)], [(13.47, 30.87), (8.53, 22.87), (31.7, 21.96), (19.24, 3.76), (19.15, 6.15), (19.03, 2.17), (15.08, 6.42), (14.34, 26.66), (6.97, 22.17), (9.11, 24.45)]]",,0.0,,,1.778
