Task Type,Participant ID,Trial,Target Present,Target orientation,Response,Correct,Reaction Time (s),Num Gabors,Gabor Positions,Target Trajectory,Speed (px/s),FixOnTargetTime(s),LastFixIndex,CalibrationDrift(deg)
dynamic task,kh15_dt5,1,1,0,0,0,1.2922423226355022,10,"[[(16.0, 23.57), (16.19, 24.81), (13.0, 16.86), (7.0, 19.86), (22.0, 6.0), (2.0, 26.14), (16.57, 16.0), (28.81, 29.81), (23.0, 3.0), (18.21, 11.21)], [(16.0, 24.14), (15.79, 25.21), (13.0, 16.29), (7.0, 19.29), (22.57, 6.0), (2.0, 26.71), (17.14, 16.0), (29.21, 30.21), (22.43, 3.0), (18.62, 11.62)], [(16.0, 24.71), (15.38, 25.62), (13.0, 15.71), (7.0, 18.71), (23.14, 6.0), (2.0, 27.29), (17.71, 16.0), (29.62, 30.62), (21.86, 3.0), (19.02, 12.02)], [(16.0, 25.29), (14.98, 26.02), (13.0, 15.14), (7.0, 18.14), (23.71, 6.0), (2.0, 27.86), (18.29, 16.0), (30.02, 31.02), (21.29, 3.0), (19.43, 12.43)], [(16.0, 25.86), (14.57, 26.43), (13.0, 14.57), (7.0, 17.57), (24.29, 6.0), (2.0, 28.43), (18.86, 16.0), (30.43, 31.43), (20.71, 3.0), (19.83, 12.83)], [(16.0, 26.43), (14.17, 26.83), (13.0, 14.0), (7.0, 17.0), (24.86, 6.0), (2.0, 29.0), (19.43, 16.0), (30.83, 31.83), (20.14, 3.0), (19.26, 12.83)], [(16.0, 27.0), (14.57, 27.23), (12.43, 14.0), (7.4, 17.4), (25.43, 6.0), (2.57, 29.0), (20.0, 16.0), (30.26, 31.83), (19.57, 3.0), (18.69, 12.83)], [(16.4, 26.6), (14.98, 27.64), (11.86, 14.0), (7.81, 17.81), (26.0, 6.0), (3.14, 29.0), (19.6, 16.4), (29.69, 31.83), (19.0, 3.0), (18.12, 12.83)], [(16.81, 26.19), (15.38, 28.04), (11.29, 14.0), (8.21, 18.21), (26.4, 5.6), (3.71, 29.0), (19.19, 16.81), (29.12, 31.83), (19.0, 3.57), (17.54, 12.83)], [(17.21, 25.79), (15.79, 28.45), (10.71, 14.0), (8.62, 18.62), (26.81, 5.19), (4.29, 29.0), (18.79, 17.21), (28.54, 31.83), (19.0, 4.14), (16.97, 12.83)], [(17.62, 25.38), (16.19, 28.85), (10.14, 14.0), (9.02, 19.02), (27.21, 4.79), (4.86, 29.0), (18.38, 17.62), (27.97, 31.83), (19.0, 4.71), (16.4, 12.83)], [(18.02, 24.98), (16.6, 29.26), (9.57, 14.0), (9.43, 19.43), (27.62, 4.38), (5.43, 29.0), (17.98, 18.02), (27.4, 31.83), (19.0, 5.29), (15.83, 12.83)], [(18.43, 24.57), (17.0, 29.66), (9.0, 14.0), (9.83, 19.83), (28.02, 3.98), (6.0, 29.0), (17.57, 18.43), (26.83, 31.83), (19.0, 5.86), (15.43, 13.23)], [(18.83, 24.17), (17.4, 30.06), (8.43, 14.0), (9.83, 20.4), (28.43, 3.57), (6.57, 29.0), (17.17, 18.83), (26.43, 31.43), (19.0, 6.43), (15.02, 13.64)], [(18.83, 23.6), (17.81, 30.47), (7.86, 14.0), (9.83, 20.97), (28.83, 3.17), (7.14, 29.0), (17.74, 18.83), (26.02, 31.02), (19.0, 7.0), (14.62, 14.04)], [(18.83, 23.03), (18.21, 30.87), (7.29, 14.0), (9.83, 21.54), (28.83, 3.74), (7.71, 29.0), (18.31, 18.83), (25.62, 30.62), (18.6, 7.4), (14.21, 14.45)], [(18.83, 22.46), (18.62, 31.28), (6.71, 14.0), (9.83, 22.12), (28.83, 4.31), (8.29, 29.0), (18.88, 18.83), (25.21, 30.21), (18.19, 7.81), (13.81, 14.85)], [(18.83, 21.88), (19.02, 31.68), (6.14, 14.0), (9.83, 22.69), (28.83, 4.88), (8.86, 29.0), (19.46, 18.83), (24.81, 29.81), (17.79, 8.21), (13.4, 15.26)], [(18.83, 21.31), (19.43, 32.09), (5.57, 14.0), (9.83, 23.26), (28.83, 5.46), (9.43, 29.0), (20.03, 18.83), (24.4, 29.4), (17.38, 8.62), (13.0, 15.66)], [(18.83, 20.74), (19.83, 32.49), (5.0, 14.0), (9.83, 23.83), (28.83, 6.03), (10.0, 29.0), (20.6, 18.83), (24.0, 29.0), (16.98, 9.02), (12.6, 16.06)], [(18.83, 20.17), (19.26, 32.49), (5.0, 14.57), (9.26, 23.83), (28.83, 6.6), (10.57, 29.0), (21.17, 18.83), (23.6, 28.6), (16.57, 9.43), (12.19, 16.47)], [(19.4, 20.17), (18.69, 32.49), (5.0, 15.14), (8.69, 23.83), (28.83, 7.17), (11.14, 29.0), (21.57, 18.43), (23.19, 28.19), (16.17, 9.83), (11.79, 16.87)], [(19.97, 20.17), (18.12, 32.49), (5.0, 15.71), (8.12, 23.83), (29.4, 7.17), (11.71, 29.0), (21.98, 18.02), (22.79, 27.79), (15.77, 9.43), (11.38, 17.28)]]","[(13.0, 16.86), (13.0, 16.29), (13.0, 15.71), (13.0, 15.14), (13.0, 14.57), (13.0, 14.0), (12.43, 14.0), (11.86, 14.0), (11.29, 14.0), (10.71, 14.0), (10.14, 14.0), (9.57, 14.0), (9.0, 14.0), (8.43, 14.0), (7.86, 14.0), (7.29, 14.0), (6.71, 14.0), (6.14, 14.0), (5.57, 14.0), (5.0, 14.0), (5.0, 14.57), (5.0, 15.14), (5.0, 15.71)]",328.85,,,1.354
dynamic task,kh15_dt5,2,1,0,0,0,1.1818000032426426,10,"[[(27.79, 28.79), (11.21, 4.21), (5.86, 11.0), (27.4, 17.6), (22.14, 23.0), (5.81, 29.81), (12.4, 23.6), (29.86, 26.0), (19.4, 20.6), (18.71, 15.0)], [(27.38, 28.38), (11.62, 4.62), (5.29, 11.0), (27.81, 17.19), (22.71, 23.0), (6.21, 30.21), (12.81, 23.19), (29.29, 26.0), (19.81, 20.19), (19.29, 15.0)], [(26.98, 27.98), (12.02, 5.02), (4.71, 11.0), (28.21, 16.79), (23.29, 23.0), (6.62, 30.62), (13.21, 22.79), (28.71, 26.0), (20.21, 19.79), (19.86, 15.0)], [(26.57, 27.57), (12.43, 5.43), (4.14, 11.0), (28.62, 16.38), (23.86, 23.0), (7.02, 31.02), (13.62, 22.38), (28.14, 26.0), (20.62, 19.38), (20.43, 15.0)], [(26.17, 27.17), (12.83, 5.83), (3.57, 11.0), (29.02, 15.98), (24.43, 23.0), (7.43, 31.43), (14.02, 21.98), (27.57, 26.0), (21.02, 18.98), (21.0, 15.0)], [(26.17, 26.6), (12.43, 6.23), (3.0, 11.0), (29.43, 15.57), (25.0, 23.0), (7.83, 31.83), (14.43, 21.57), (27.0, 26.0), (21.43, 18.57), (21.0, 14.43)], [(26.17, 26.03), (12.02, 6.64), (3.0, 11.57), (29.83, 15.17), (24.6, 23.4), (7.26, 31.83), (14.83, 21.17), (27.0, 25.43), (21.83, 18.17), (21.0, 13.86)], [(26.17, 25.46), (11.62, 7.04), (3.0, 12.14), (30.23, 15.57), (24.19, 23.81), (6.69, 31.83), (14.26, 21.17), (27.0, 24.86), (21.43, 17.77), (21.0, 13.29)], [(26.17, 24.88), (11.21, 7.45), (3.0, 12.71), (30.64, 15.98), (23.79, 24.21), (6.12, 31.83), (13.69, 21.17), (27.0, 24.29), (21.02, 17.36), (21.0, 12.71)], [(26.17, 24.31), (10.81, 7.85), (3.0, 13.29), (31.04, 16.38), (23.38, 24.62), (5.54, 31.83), (13.12, 21.17), (27.0, 23.71), (20.62, 16.96), (21.0, 12.14)], [(26.17, 23.74), (10.4, 8.26), (3.0, 13.86), (31.45, 16.79), (22.98, 25.02), (4.97, 31.83), (12.54, 21.17), (27.0, 23.14), (20.21, 16.55), (21.0, 11.57)], [(26.17, 23.17), (10.0, 8.66), (3.0, 14.43), (31.85, 17.19), (22.57, 25.43), (4.4, 31.83), (11.97, 21.17), (27.0, 22.57), (19.81, 16.15), (21.0, 11.0)], [(25.6, 23.17), (10.0, 8.09), (3.0, 15.0), (32.26, 17.6), (22.17, 25.83), (3.83, 31.83), (11.4, 21.17), (27.0, 22.0), (19.4, 15.74), (20.6, 11.4)], [(25.03, 23.17), (10.0, 7.52), (3.0, 15.57), (32.66, 18.0), (21.6, 25.83), (3.83, 31.26), (10.83, 21.17), (27.4, 21.6), (19.0, 15.34), (20.19, 11.81)], [(24.46, 23.17), (10.0, 6.95), (3.0, 16.14), (32.26, 18.4), (21.03, 25.83), (3.83, 30.69), (11.23, 21.57), (27.81, 21.19), (19.0, 14.77), (19.79, 12.21)], [(23.88, 23.17), (10.0, 6.37), (3.0, 16.71), (31.85, 18.81), (20.46, 25.83), (3.83, 30.12), (11.64, 21.98), (28.21, 20.79), (19.0, 14.2), (19.38, 12.62)], [(23.31, 23.17), (10.0, 5.8), (3.0, 17.29), (31.45, 19.21), (19.88, 25.83), (3.83, 29.54), (12.04, 22.38), (28.62, 20.38), (19.0, 13.63), (18.98, 13.02)], [(22.74, 23.17), (10.0, 5.23), (3.0, 17.86), (31.04, 19.62), (19.31, 25.83), (3.83, 28.97), (12.45, 22.79), (29.02, 19.98), (19.0, 13.05), (18.57, 13.43)], [(22.17, 23.17), (10.0, 4.66), (3.0, 18.43), (30.64, 20.02), (18.74, 25.83), (3.83, 28.4), (12.85, 23.19), (29.43, 19.57), (19.0, 12.48), (18.17, 13.83)], [(21.77, 23.57), (9.6, 5.06), (3.0, 19.0), (30.23, 20.43), (18.17, 25.83), (3.83, 27.83), (13.26, 23.6), (29.83, 19.17), (19.0, 11.91), (17.77, 13.43)], [(21.36, 23.98), (9.19, 5.47), (3.4, 18.6), (29.83, 20.83), (18.17, 25.26), (4.4, 27.83), (13.66, 24.0), (29.26, 19.17), (19.0, 11.34), (17.36, 13.02)]]","[(22.14, 23.0), (22.71, 23.0), (23.29, 23.0), (23.86, 23.0), (24.43, 23.0), (25.0, 23.0), (24.6, 23.4), (24.19, 23.81), (23.79, 24.21), (23.38, 24.62), (22.98, 25.02), (22.57, 25.43), (22.17, 25.83), (21.6, 25.83), (21.03, 25.83), (20.46, 25.83), (19.88, 25.83), (19.31, 25.83), (18.74, 25.83), (18.17, 25.83), (18.17, 25.26)]",329.37,,,1.253
dynamic task,kh15_dt5,3,1,0,1,1,0.9458403863663989,10,"[[(25.79, 18.79), (9.0, 12.29), (13.57, 31.0), (12.6, 26.6), (14.57, 24.0), (18.6, 5.4), (14.29, 18.0), (13.14, 28.0), (21.79, 27.79), (22.0, 11.86)], [(25.38, 18.38), (9.0, 11.71), (14.14, 31.0), (12.19, 26.19), (15.14, 24.0), (18.19, 5.81), (13.71, 18.0), (13.71, 28.0), (21.38, 27.38), (22.0, 11.29)], [(24.98, 17.98), (9.0, 11.14), (14.71, 31.0), (11.79, 25.79), (15.71, 24.0), (17.79, 6.21), (13.14, 18.0), (14.29, 28.0), (20.98, 26.98), (22.0, 10.71)], [(24.57, 17.57), (9.0, 10.57), (15.29, 31.0), (11.38, 25.38), (16.29, 24.0), (17.38, 6.62), (12.57, 18.0), (14.86, 28.0), (20.57, 26.57), (22.0, 10.14)], [(24.17, 17.17), (9.0, 10.0), (15.86, 31.0), (10.98, 24.98), (16.86, 24.0), (16.98, 7.02), (12.0, 18.0), (15.43, 28.0), (20.17, 26.17), (22.0, 9.57)], [(24.17, 16.6), (9.4, 10.4), (16.43, 31.0), (10.57, 24.57), (17.43, 24.0), (16.57, 7.43), (12.4, 18.4), (16.0, 28.0), (20.57, 25.77), (22.0, 9.0)], [(24.17, 16.03), (9.81, 10.81), (17.0, 31.0), (10.17, 24.17), (18.0, 24.0), (16.17, 7.83), (12.81, 18.81), (15.6, 27.6), (20.98, 25.36), (21.6, 8.6)], [(24.17, 15.46), (10.21, 11.21), (17.4, 30.6), (10.17, 23.6), (18.4, 23.6), (15.6, 7.83), (13.21, 19.21), (15.19, 27.19), (21.38, 24.96), (21.19, 8.19)], [(24.17, 14.88), (10.62, 11.62), (17.81, 30.19), (10.17, 23.03), (18.81, 23.19), (15.03, 7.83), (13.62, 19.62), (14.79, 26.79), (21.79, 24.55), (20.79, 7.79)], [(24.17, 14.31), (11.02, 12.02), (18.21, 29.79), (10.17, 22.46), (19.21, 22.79), (14.46, 7.83), (14.02, 20.02), (14.38, 26.38), (22.19, 24.15), (20.38, 7.38)], [(24.17, 13.74), (11.43, 12.43), (18.62, 29.38), (10.17, 21.88), (19.62, 22.38), (13.88, 7.83), (14.43, 20.43), (13.98, 25.98), (22.6, 23.74), (19.98, 6.98)], [(24.17, 13.17), (11.83, 12.83), (19.02, 28.98), (10.17, 21.31), (20.02, 21.98), (13.31, 7.83), (14.83, 20.83), (13.57, 25.57), (23.0, 23.34), (19.57, 6.57)], [(23.6, 13.17), (11.83, 12.26), (19.43, 28.57), (10.17, 20.74), (20.43, 21.57), (12.74, 7.83), (15.23, 21.23), (13.17, 25.17), (23.57, 23.34), (19.17, 6.17)], [(23.03, 13.17), (11.83, 11.69), (19.83, 28.17), (10.17, 20.17), (20.83, 21.17), (12.17, 7.83), (15.64, 21.64), (13.17, 24.6), (24.14, 23.34), (18.6, 6.17)], [(22.46, 13.17), (11.83, 11.12), (19.26, 28.17), (9.6, 20.17), (21.23, 20.77), (11.77, 8.23), (16.04, 22.04), (13.17, 24.03), (24.71, 23.34), (18.03, 6.17)], [(21.88, 13.17), (11.83, 10.54), (18.69, 28.17), (9.03, 20.17), (21.64, 20.36), (11.36, 8.64), (16.45, 22.45), (13.17, 23.46), (25.29, 23.34), (17.46, 6.17)]]","[(9.0, 12.29), (9.0, 11.71), (9.0, 11.14), (9.0, 10.57), (9.0, 10.0), (9.4, 10.4), (9.81, 10.81), (10.21, 11.21), (10.62, 11.62), (11.02, 12.02), (11.43, 12.43), (11.83, 12.83), (11.83, 12.26), (11.83, 11.69), (11.83, 11.12), (11.83, 10.54)]",303.0,,,1.549
dynamic task,kh15_dt5,4,0,0,0,1,0.8693846076384943,10,"[[(6.0, 27.0), (5.81, 19.81), (20.29, 9.0), (2.4, 26.4), (23.0, 3.0), (7.0, 25.0), (18.0, 2.0), (19.0, 7.57), (17.4, 9.6), (25.0, 9.0)], [(6.0, 27.57), (6.21, 20.21), (19.71, 9.0), (2.81, 26.81), (22.6, 3.4), (6.43, 25.0), (18.0, 2.57), (19.0, 8.14), (17.81, 9.19), (25.57, 9.0)], [(6.0, 28.14), (6.62, 20.62), (19.14, 9.0), (3.21, 27.21), (22.19, 3.81), (5.86, 25.0), (18.0, 3.14), (19.0, 8.71), (18.21, 8.79), (26.14, 9.0)], [(6.0, 28.71), (7.02, 21.02), (18.57, 9.0), (3.62, 27.62), (21.79, 4.21), (5.29, 25.0), (18.0, 3.71), (19.0, 9.29), (18.62, 8.38), (26.71, 9.0)], [(6.0, 29.29), (7.43, 21.43), (18.0, 9.0), (4.02, 28.02), (21.38, 4.62), (4.71, 25.0), (18.0, 4.29), (19.0, 9.86), (19.02, 7.98), (27.29, 9.0)], [(6.0, 29.86), (7.83, 21.83), (18.4, 8.6), (4.43, 28.43), (20.98, 5.02), (4.14, 25.0), (18.0, 4.86), (19.0, 10.43), (19.43, 7.57), (27.86, 9.0)], [(6.0, 30.43), (8.23, 22.23), (18.81, 8.19), (4.83, 28.83), (20.57, 5.43), (3.57, 25.0), (18.0, 5.43), (19.0, 11.0), (19.83, 7.17), (28.43, 9.0)], [(6.0, 31.0), (8.64, 22.64), (19.21, 7.79), (5.23, 28.43), (20.17, 5.83), (3.0, 25.0), (18.0, 6.0), (19.0, 11.57), (20.4, 7.17), (29.0, 9.0)], [(6.57, 31.0), (9.04, 23.04), (19.62, 7.38), (5.64, 28.02), (20.17, 6.4), (3.0, 25.57), (17.6, 6.4), (19.0, 12.14), (20.97, 7.17), (28.6, 8.6)], [(7.14, 31.0), (9.45, 23.45), (20.02, 6.98), (6.04, 27.62), (20.17, 6.97), (3.0, 26.14), (17.19, 6.81), (19.0, 12.71), (21.54, 7.17), (28.19, 8.19)], [(7.71, 31.0), (9.85, 23.85), (20.43, 6.57), (6.45, 27.21), (20.17, 7.54), (3.0, 26.71), (16.79, 7.21), (19.0, 13.29), (22.12, 7.17), (27.79, 7.79)], [(8.29, 31.0), (10.26, 24.26), (20.83, 6.17), (6.85, 26.81), (20.17, 8.12), (3.0, 27.29), (16.38, 7.62), (19.0, 13.86), (22.69, 7.17), (27.38, 7.38)], [(8.86, 31.0), (10.66, 24.66), (20.83, 5.6), (7.26, 26.4), (20.17, 8.69), (3.0, 27.86), (15.98, 8.02), (19.0, 14.43), (23.26, 7.17), (26.98, 6.98)], [(9.43, 31.0), (10.66, 24.09), (20.83, 5.03), (7.66, 26.0), (20.17, 9.26), (3.0, 28.43), (15.57, 8.43), (19.0, 15.0), (23.83, 7.17), (26.57, 6.57)], [(10.0, 31.0), (10.66, 23.52), (20.83, 4.46), (7.66, 25.43), (20.17, 9.83), (3.0, 29.0), (15.17, 8.83), (18.6, 14.6), (24.4, 7.17), (26.17, 6.17)]]",,0.0,,,0.588
dynamic task,kh15_dt5,5,1,0,1,1,0.9826511743140145,10,"[[(28.43, 5.0), (25.6, 31.6), (19.81, 5.81), (8.21, 19.79), (4.0, 7.43), (28.14, 3.0), (30.0, 18.14), (24.57, 28.0), (14.6, 13.6), (18.81, 14.81)], [(27.86, 5.0), (25.19, 31.19), (20.21, 6.21), (8.62, 19.38), (4.0, 6.86), (28.71, 3.0), (30.0, 18.71), (25.14, 28.0), (14.19, 13.19), (19.21, 15.21)], [(27.29, 5.0), (24.79, 30.79), (20.62, 6.62), (9.02, 18.98), (4.0, 6.29), (29.29, 3.0), (30.0, 19.29), (25.71, 28.0), (13.79, 12.79), (19.62, 15.62)], [(26.71, 5.0), (24.38, 30.38), (21.02, 7.02), (9.43, 18.57), (4.0, 5.71), (29.86, 3.0), (30.0, 19.86), (26.29, 28.0), (13.38, 12.38), (20.02, 16.02)], [(26.14, 5.0), (23.98, 29.98), (21.43, 7.43), (9.83, 18.17), (4.0, 5.14), (30.43, 3.0), (30.0, 20.43), (26.86, 28.0), (12.98, 11.98), (20.43, 16.43)], [(25.57, 5.0), (23.57, 29.57), (21.83, 7.83), (9.26, 18.17), (4.0, 4.57), (31.0, 3.0), (30.0, 21.0), (27.43, 28.0), (12.57, 11.57), (20.83, 16.83)], [(25.0, 5.0), (23.17, 29.17), (22.23, 7.43), (8.69, 18.17), (4.0, 4.0), (31.0, 3.57), (29.43, 21.0), (28.0, 28.0), (12.17, 11.17), (21.23, 16.43)], [(24.43, 5.0), (23.74, 29.17), (22.64, 7.02), (8.12, 18.17), (4.4, 4.4), (31.0, 4.14), (28.86, 21.0), (28.57, 28.0), (12.17, 10.6), (21.64, 16.02)], [(23.86, 5.0), (24.31, 29.17), (23.04, 6.62), (7.54, 18.17), (4.81, 4.81), (31.0, 4.71), (28.29, 21.0), (29.14, 28.0), (12.17, 10.03), (22.04, 15.62)], [(23.29, 5.0), (24.88, 29.17), (23.45, 6.21), (6.97, 18.17), (5.21, 5.21), (31.0, 5.29), (27.71, 21.0), (29.71, 28.0), (12.17, 9.46), (22.45, 15.21)], [(22.71, 5.0), (25.46, 29.17), (23.85, 5.81), (6.4, 18.17), (5.62, 5.62), (31.0, 5.86), (27.14, 21.0), (30.29, 28.0), (12.17, 8.88), (22.85, 14.81)], [(22.14, 5.0), (26.03, 29.17), (24.26, 5.4), (5.83, 18.17), (6.02, 6.02), (31.0, 6.43), (26.57, 21.0), (30.86, 28.0), (12.17, 8.31), (23.26, 14.4)], [(21.57, 5.0), (26.6, 29.17), (24.66, 5.0), (5.43, 17.77), (6.43, 6.43), (31.0, 7.0), (26.0, 21.0), (31.43, 28.0), (12.17, 7.74), (23.66, 14.0)], [(21.0, 5.0), (27.17, 29.17), (25.06, 4.6), (5.02, 17.36), (6.83, 6.83), (31.0, 7.57), (25.43, 21.0), (32.0, 28.0), (12.17, 7.17), (23.66, 13.43)], [(21.0, 5.57), (26.77, 28.77), (25.47, 4.19), (4.62, 16.96), (7.23, 7.23), (31.0, 8.14), (24.86, 21.0), (32.0, 28.57), (11.77, 7.57), (23.66, 12.86)], [(21.0, 6.14), (26.36, 28.36), (25.87, 3.79), (4.21, 16.55), (7.64, 7.64), (31.0, 8.71), (24.29, 21.0), (32.0, 29.14), (11.36, 7.98), (23.66, 12.29)], [(21.0, 6.71), (25.96, 27.96), (26.28, 3.38), (3.81, 16.15), (8.04, 8.04), (31.0, 9.29), (23.71, 21.0), (32.0, 29.71), (10.96, 8.38), (23.66, 11.71)]]","[(14.6, 13.6), (14.19, 13.19), (13.79, 12.79), (13.38, 12.38), (12.98, 11.98), (12.57, 11.57), (12.17, 11.17), (12.17, 10.6), (12.17, 10.03), (12.17, 9.46), (12.17, 8.88), (12.17, 8.31), (12.17, 7.74), (12.17, 7.17), (11.77, 7.57), (11.36, 7.98), (10.96, 8.38)]",313.18,,,1.743
dynamic task,kh15_dt5,6,1,0,0,0,0.6890753768821014,10,"[[(17.0, 3.0), (13.81, 7.19), (4.86, 16.0), (29.29, 18.0), (11.57, 22.0), (2.0, 30.0), (4.0, 23.0), (4.0, 14.29), (6.0, 23.14), (30.43, 32.0)], [(17.57, 3.0), (14.21, 6.79), (4.29, 16.0), (28.71, 18.0), (12.14, 22.0), (2.4, 30.4), (4.0, 23.57), (4.0, 13.71), (6.0, 23.71), (29.86, 32.0)], [(18.14, 3.0), (14.62, 6.38), (3.71, 16.0), (28.14, 18.0), (12.71, 22.0), (2.81, 30.81), (4.0, 24.14), (4.0, 13.14), (6.0, 24.29), (29.29, 32.0)], [(18.71, 3.0), (15.02, 5.98), (3.14, 16.0), (27.57, 18.0), (13.29, 22.0), (3.21, 31.21), (4.0, 24.71), (4.0, 12.57), (6.0, 24.86), (28.71, 32.0)], [(19.29, 3.0), (15.43, 5.57), (2.57, 16.0), (27.0, 18.0), (13.86, 22.0), (3.62, 31.62), (4.0, 25.29), (4.0, 12.0), (6.0, 25.43), (28.14, 32.0)], [(19.86, 3.0), (15.83, 5.17), (2.0, 16.0), (27.4, 17.6), (14.43, 22.0), (4.02, 32.02), (4.0, 25.86), (4.57, 12.0), (6.0, 26.0), (27.57, 32.0)], [(20.43, 3.0), (15.83, 5.74), (2.4, 15.6), (27.81, 17.19), (15.0, 22.0), (4.43, 32.43), (4.0, 26.43), (5.14, 12.0), (6.4, 26.4), (27.0, 32.0)], [(21.0, 3.0), (15.83, 6.31), (2.81, 15.19), (28.21, 16.79), (14.6, 21.6), (4.83, 32.83), (4.0, 27.0), (5.71, 12.0), (6.81, 26.81), (26.6, 31.6)], [(21.0, 3.57), (15.83, 6.88), (3.21, 14.79), (28.62, 16.38), (14.19, 21.19), (4.83, 32.26), (4.57, 27.0), (6.29, 12.0), (7.21, 27.21), (26.19, 31.19)], [(21.0, 4.14), (15.83, 7.46), (3.62, 14.38), (29.02, 15.98), (13.79, 20.79), (4.83, 31.69), (5.14, 27.0), (6.86, 12.0), (7.62, 27.62), (25.79, 30.79)], [(21.0, 4.71), (15.83, 8.03), (4.02, 13.98), (29.43, 15.57), (13.38, 20.38), (4.83, 31.12), (5.71, 27.0), (7.43, 12.0), (8.02, 28.02), (25.38, 30.38)]]","[(17.0, 3.0), (17.57, 3.0), (18.14, 3.0), (18.71, 3.0), (19.29, 3.0), (19.86, 3.0), (20.43, 3.0), (21.0, 3.0), (21.0, 3.57), (21.0, 4.14), (21.0, 4.71)]",276.15,,,1.845
dynamic task,kh15_dt5,7,0,0,0,1,0.6835446422501263,10,"[[(10.0, 26.0), (25.0, 26.0), (16.4, 11.4), (14.71, 6.0), (10.0, 17.0), (3.14, 4.0), (21.43, 18.0), (27.4, 25.6), (11.0, 7.0), (32.0, 8.0)], [(9.43, 26.0), (25.57, 26.0), (16.81, 11.81), (15.29, 6.0), (10.57, 17.0), (3.71, 4.0), (20.86, 18.0), (27.81, 25.19), (10.43, 7.0), (32.0, 8.57)], [(8.86, 26.0), (26.14, 26.0), (17.21, 12.21), (15.86, 6.0), (11.14, 17.0), (4.29, 4.0), (20.29, 18.0), (28.21, 24.79), (9.86, 7.0), (32.0, 9.14)], [(8.29, 26.0), (26.71, 26.0), (17.62, 12.62), (16.43, 6.0), (11.71, 17.0), (4.86, 4.0), (19.71, 18.0), (28.62, 24.38), (9.29, 7.0), (32.0, 9.71)], [(7.71, 26.0), (27.29, 26.0), (18.02, 13.02), (17.0, 6.0), (12.29, 17.0), (5.43, 4.0), (19.14, 18.0), (29.02, 23.98), (8.71, 7.0), (32.0, 10.29)], [(7.14, 26.0), (27.86, 26.0), (18.43, 13.43), (17.4, 6.4), (12.86, 17.0), (6.0, 4.0), (18.57, 18.0), (29.43, 23.57), (8.14, 7.0), (32.0, 10.86)], [(6.57, 26.0), (28.43, 26.0), (18.83, 13.83), (17.81, 6.81), (13.43, 17.0), (6.57, 4.0), (18.0, 18.0), (29.83, 23.17), (7.57, 7.0), (32.0, 11.43)], [(6.0, 26.0), (29.0, 26.0), (18.83, 14.4), (18.21, 7.21), (14.0, 17.0), (7.14, 4.0), (18.0, 17.43), (29.83, 23.74), (7.0, 7.0), (32.0, 12.0)], [(6.0, 26.57), (28.6, 26.4), (18.83, 14.97), (18.62, 7.62), (13.6, 16.6), (7.71, 4.0), (18.0, 16.86), (29.83, 24.31), (6.6, 7.4), (32.0, 12.57)], [(6.0, 27.14), (28.19, 26.81), (18.83, 15.54), (19.02, 8.02), (13.19, 16.19), (8.29, 4.0), (18.0, 16.29), (29.83, 24.88), (6.19, 7.81), (32.0, 13.14)], [(6.0, 27.71), (27.79, 27.21), (18.83, 16.12), (19.43, 8.43), (12.79, 15.79), (8.86, 4.0), (18.0, 15.71), (29.83, 25.46), (5.79, 8.21), (32.0, 13.71)]]",,0.0,,,2.167
dynamic task,kh15_dt5,8,0,0,0,1,0.8708699756834903,10,"[[(22.0, 13.29), (6.81, 22.81), (21.19, 28.81), (11.0, 22.0), (31.0, 24.0), (25.0, 13.0), (3.0, 27.0), (19.43, 20.0), (20.0, 22.0), (5.0, 6.57)], [(22.0, 12.71), (7.21, 23.21), (20.79, 29.21), (11.0, 22.57), (31.0, 24.57), (25.0, 12.43), (3.0, 26.43), (18.86, 20.0), (20.4, 21.6), (5.0, 7.14)], [(22.0, 12.14), (7.62, 23.62), (20.38, 29.62), (11.0, 23.14), (31.0, 25.14), (25.0, 11.86), (3.0, 25.86), (18.29, 20.0), (20.81, 21.19), (5.0, 7.71)], [(22.0, 11.57), (8.02, 24.02), (19.98, 30.02), (11.0, 23.71), (31.0, 25.71), (25.0, 11.29), (3.0, 25.29), (17.71, 20.0), (21.21, 20.79), (5.0, 8.29)], [(22.0, 11.0), (8.43, 24.43), (19.57, 30.43), (11.0, 24.29), (31.0, 26.29), (25.0, 10.71), (3.0, 24.71), (17.14, 20.0), (21.62, 20.38), (5.0, 8.86)], [(22.4, 10.6), (8.83, 24.83), (19.17, 30.83), (11.0, 24.86), (31.0, 26.86), (25.0, 10.14), (3.0, 24.14), (16.57, 20.0), (22.02, 19.98), (5.0, 9.43)], [(22.81, 10.19), (9.23, 24.43), (18.77, 30.43), (11.0, 25.43), (31.0, 27.43), (25.0, 9.57), (3.0, 23.57), (16.0, 20.0), (22.43, 19.57), (5.0, 10.0)], [(23.21, 9.79), (9.64, 24.02), (18.36, 30.02), (11.0, 26.0), (31.0, 28.0), (25.0, 9.0), (3.0, 23.0), (15.43, 20.0), (22.83, 19.17), (4.6, 10.4)], [(23.62, 9.38), (10.04, 23.62), (17.96, 29.62), (11.4, 26.4), (30.6, 27.6), (25.4, 8.6), (3.57, 23.0), (14.86, 20.0), (22.83, 19.74), (4.19, 10.81)], [(24.02, 8.98), (10.45, 23.21), (17.55, 29.21), (11.81, 26.81), (30.19, 27.19), (25.81, 8.19), (4.14, 23.0), (14.29, 20.0), (22.83, 20.31), (3.79, 11.21)], [(24.43, 8.57), (10.85, 22.81), (17.15, 28.81), (12.21, 27.21), (29.79, 26.79), (26.21, 7.79), (4.71, 23.0), (13.71, 20.0), (22.83, 20.88), (3.38, 11.62)], [(24.83, 8.17), (11.26, 22.4), (16.74, 28.4), (12.62, 27.62), (29.38, 26.38), (26.62, 7.38), (5.29, 23.0), (13.14, 20.0), (22.83, 21.46), (2.98, 12.02)], [(24.26, 8.17), (11.66, 22.0), (16.34, 28.0), (13.02, 28.02), (28.98, 25.98), (27.02, 6.98), (5.86, 23.0), (12.57, 20.0), (22.83, 22.03), (2.57, 12.43)], [(23.69, 8.17), (11.66, 21.43), (15.77, 28.0), (13.43, 28.43), (28.57, 25.57), (27.43, 6.57), (6.43, 23.0), (12.0, 20.0), (22.83, 22.6), (2.17, 12.83)], [(23.12, 8.17), (11.66, 20.86), (15.2, 28.0), (13.83, 28.83), (28.17, 25.17), (27.83, 6.17), (7.0, 23.0), (11.43, 20.0), (22.83, 23.17), (2.17, 13.4)]]",,0.0,,,2.296
dynamic task,kh15_dt5,9,0,0,0,1,0.688672034888441,10,"[[(20.0, 17.71), (20.6, 25.4), (30.4, 30.6), (13.71, 2.0), (30.0, 5.0), (27.19, 15.81), (19.19, 5.19), (3.14, 32.0), (14.0, 11.0), (4.0, 30.0)], [(20.0, 18.29), (20.19, 25.81), (30.81, 30.19), (14.29, 2.0), (30.0, 5.57), (26.79, 16.21), (18.79, 4.79), (3.71, 32.0), (14.0, 11.57), (4.4, 29.6)], [(20.0, 18.86), (19.79, 26.21), (31.21, 29.79), (14.86, 2.0), (30.0, 6.14), (26.38, 16.62), (18.38, 4.38), (4.29, 32.0), (14.0, 12.14), (4.81, 29.19)], [(20.0, 19.43), (19.38, 26.62), (31.62, 29.38), (15.43, 2.0), (30.0, 6.71), (25.98, 17.02), (17.98, 3.98), (4.86, 32.0), (14.0, 12.71), (5.21, 28.79)], [(20.0, 20.0), (18.98, 27.02), (32.02, 28.98), (16.0, 2.0), (30.0, 7.29), (25.57, 17.43), (17.57, 3.57), (5.43, 32.0), (14.0, 13.29), (5.62, 28.38)], [(19.6, 19.6), (18.57, 27.43), (32.43, 28.57), (16.57, 2.0), (30.0, 7.86), (25.17, 17.83), (17.17, 3.17), (6.0, 32.0), (14.0, 13.86), (6.02, 27.98)], [(19.19, 19.19), (18.17, 27.83), (32.83, 28.17), (17.14, 2.0), (30.0, 8.43), (25.57, 18.23), (16.77, 3.57), (6.0, 31.43), (14.0, 14.43), (6.43, 27.57)], [(18.79, 18.79), (18.74, 27.83), (32.26, 28.17), (17.71, 2.0), (30.0, 9.0), (25.98, 18.64), (16.36, 3.98), (6.0, 30.86), (14.0, 15.0), (6.83, 27.17)], [(18.38, 18.38), (19.31, 27.83), (31.69, 28.17), (18.29, 2.0), (29.6, 8.6), (26.38, 19.04), (15.96, 4.38), (6.0, 30.29), (13.43, 15.0), (6.83, 26.6)], [(17.98, 17.98), (19.88, 27.83), (31.12, 28.17), (18.86, 2.0), (29.19, 8.19), (26.79, 19.45), (15.55, 4.79), (6.0, 29.71), (12.86, 15.0), (6.83, 26.03)], [(17.57, 17.57), (20.46, 27.83), (30.54, 28.17), (19.43, 2.0), (28.79, 7.79), (27.19, 19.85), (15.15, 5.19), (6.0, 29.14), (12.29, 15.0), (6.83, 25.46)]]",,0.0,,,2.207
dynamic task,kh15_dt5,10,0,0,0,1,0.911981845628361,10,"[[(27.0, 3.57), (8.0, 22.0), (2.0, 32.0), (5.6, 20.6), (21.0, 17.0), (31.0, 6.0), (7.0, 4.0), (25.4, 20.6), (5.0, 27.29), (6.4, 13.6)], [(27.0, 4.14), (8.0, 21.43), (2.4, 31.6), (5.19, 20.19), (20.43, 17.0), (30.6, 6.4), (7.57, 4.0), (25.81, 20.19), (5.0, 26.71), (6.81, 13.19)], [(27.0, 4.71), (8.0, 20.86), (2.81, 31.19), (4.79, 19.79), (19.86, 17.0), (30.19, 6.81), (8.14, 4.0), (26.21, 19.79), (5.0, 26.14), (7.21, 12.79)], [(27.0, 5.29), (8.0, 20.29), (3.21, 30.79), (4.38, 19.38), (19.29, 17.0), (29.79, 7.21), (8.71, 4.0), (26.62, 19.38), (5.0, 25.57), (7.62, 12.38)], [(27.0, 5.86), (8.0, 19.71), (3.62, 30.38), (3.98, 18.98), (18.71, 17.0), (29.38, 7.62), (9.29, 4.0), (27.02, 18.98), (5.0, 25.0), (8.02, 11.98)], [(27.0, 6.43), (8.0, 19.14), (4.02, 29.98), (3.57, 18.57), (18.14, 17.0), (28.98, 8.02), (9.86, 4.0), (27.43, 18.57), (4.6, 24.6), (8.43, 11.57)], [(27.0, 7.0), (8.0, 18.57), (4.43, 29.57), (3.17, 18.17), (17.57, 17.0), (28.57, 8.43), (10.43, 4.0), (27.83, 18.17), (4.19, 24.19), (8.83, 11.17)], [(27.57, 7.0), (8.0, 18.0), (4.83, 29.17), (3.17, 17.6), (17.0, 17.0), (28.17, 8.83), (11.0, 4.0), (27.26, 18.17), (3.79, 23.79), (9.23, 10.77)], [(28.14, 7.0), (7.43, 18.0), (5.23, 28.77), (3.17, 17.03), (16.6, 17.4), (28.74, 8.83), (11.57, 4.0), (26.69, 18.17), (3.38, 23.38), (9.64, 10.36)], [(28.71, 7.0), (6.86, 18.0), (5.64, 28.36), (3.17, 16.46), (16.19, 17.81), (29.31, 8.83), (12.14, 4.0), (26.12, 18.17), (2.98, 22.98), (10.04, 9.96)], [(29.29, 7.0), (6.29, 18.0), (6.04, 27.96), (3.17, 15.88), (15.79, 18.21), (29.88, 8.83), (12.71, 4.0), (25.54, 18.17), (2.57, 22.57), (10.45, 9.55)], [(29.86, 7.0), (5.71, 18.0), (6.45, 27.55), (3.17, 15.31), (15.38, 18.62), (30.46, 8.83), (13.29, 4.0), (24.97, 18.17), (2.17, 22.17), (10.85, 9.15)], [(30.43, 7.0), (5.14, 18.0), (6.85, 27.15), (3.17, 14.74), (14.98, 19.02), (31.03, 8.83), (13.86, 4.0), (24.4, 18.17), (2.57, 21.77), (11.26, 8.74)], [(31.0, 7.0), (4.57, 18.0), (7.26, 26.74), (3.17, 14.17), (14.57, 19.43), (31.6, 8.83), (14.43, 4.0), (23.83, 18.17), (2.98, 21.36), (11.66, 8.34)], [(30.6, 7.4), (4.0, 18.0), (7.66, 26.34), (3.17, 13.6), (14.17, 19.83), (32.17, 8.83), (15.0, 4.0), (24.23, 18.57), (3.38, 20.96), (11.09, 8.34)], [(30.19, 7.81), (4.4, 17.6), (8.23, 26.34), (3.17, 13.03), (14.17, 20.4), (31.77, 9.23), (14.6, 4.4), (24.64, 18.98), (3.79, 20.55), (10.52, 8.34)]]",,0.0,,,0.476
dynamic task,kh15_dt5,11,0,0,0,1,0.9709164254336429,10,"[[(16.0, 32.0), (8.0, 4.71), (30.19, 29.19), (15.21, 30.79), (22.21, 26.79), (20.81, 28.81), (18.71, 5.0), (13.81, 8.19), (15.4, 15.6), (9.4, 8.6)], [(16.57, 32.0), (8.0, 5.29), (29.79, 28.79), (15.62, 30.38), (22.62, 26.38), (21.21, 29.21), (19.29, 5.0), (14.21, 7.79), (15.81, 15.19), (9.81, 8.19)], [(17.14, 32.0), (8.0, 5.86), (29.38, 28.38), (16.02, 29.98), (23.02, 25.98), (21.62, 29.62), (19.86, 5.0), (14.62, 7.38), (16.21, 14.79), (10.21, 7.79)], [(17.71, 32.0), (8.0, 6.43), (28.98, 27.98), (16.43, 29.57), (23.43, 25.57), (22.02, 30.02), (20.43, 5.0), (15.02, 6.98), (16.62, 14.38), (10.62, 7.38)], [(18.29, 32.0), (8.0, 7.0), (28.57, 27.57), (16.83, 29.17), (23.83, 25.17), (22.43, 30.43), (21.0, 5.0), (15.43, 6.57), (17.02, 13.98), (11.02, 6.98)], [(18.86, 32.0), (7.43, 7.0), (28.17, 27.17), (17.4, 29.17), (24.23, 25.57), (22.83, 30.83), (21.4, 5.4), (15.83, 6.17), (17.43, 13.57), (11.43, 6.57)], [(19.43, 32.0), (6.86, 7.0), (28.74, 27.17), (17.97, 29.17), (24.64, 25.98), (22.83, 30.26), (21.81, 5.81), (15.83, 6.74), (17.83, 13.17), (11.83, 6.17)], [(20.0, 32.0), (6.29, 7.0), (29.31, 27.17), (18.54, 29.17), (25.04, 26.38), (22.83, 29.69), (22.21, 6.21), (15.83, 7.31), (17.83, 12.6), (11.26, 6.17)], [(19.6, 31.6), (5.71, 7.0), (29.88, 27.17), (19.12, 29.17), (25.45, 26.79), (22.83, 29.12), (22.62, 6.62), (15.83, 7.88), (17.83, 12.03), (10.69, 6.17)], [(19.19, 31.19), (5.14, 7.0), (30.46, 27.17), (19.69, 29.17), (25.85, 27.19), (22.83, 28.54), (23.02, 7.02), (15.83, 8.46), (17.83, 11.46), (10.12, 6.17)], [(18.79, 30.79), (4.57, 7.0), (31.03, 27.17), (20.26, 29.17), (26.26, 27.6), (22.83, 27.97), (23.43, 7.43), (15.83, 9.03), (17.83, 10.88), (9.54, 6.17)], [(18.38, 30.38), (4.0, 7.0), (31.6, 27.17), (20.83, 29.17), (26.66, 28.0), (22.83, 27.4), (23.83, 7.83), (15.83, 9.6), (17.83, 10.31), (8.97, 6.17)], [(17.98, 29.98), (4.4, 7.4), (32.17, 27.17), (20.43, 28.77), (26.09, 28.0), (22.83, 26.83), (23.26, 7.83), (15.83, 10.17), (17.83, 9.74), (8.4, 6.17)], [(17.57, 29.57), (4.81, 7.81), (31.77, 26.77), (20.02, 28.36), (25.52, 28.0), (22.83, 26.26), (22.69, 7.83), (15.83, 10.74), (17.83, 9.17), (7.83, 6.17)], [(17.17, 29.17), (5.21, 8.21), (31.36, 26.36), (19.62, 27.96), (24.95, 28.0), (22.83, 25.69), (22.12, 7.83), (15.83, 11.31), (17.83, 8.6), (7.43, 6.57)], [(17.57, 28.77), (5.62, 8.62), (30.96, 25.96), (19.21, 27.55), (24.37, 28.0), (22.83, 25.12), (21.54, 7.83), (15.83, 11.88), (17.83, 8.03), (7.02, 6.98)], [(17.98, 28.36), (6.02, 9.02), (30.55, 25.55), (18.81, 27.15), (23.8, 28.0), (22.83, 24.54), (20.97, 7.83), (15.83, 12.46), (17.83, 7.46), (6.62, 7.38)]]",,0.0,,,1.798
dynamic task,kh15_dt5,12,0,0,0,1,1.0688102008543865,10,"[[(16.86, 9.0), (16.81, 15.19), (26.79, 22.79), (15.0, 3.14), (20.0, 5.71), (15.79, 29.21), (22.0, 6.0), (15.0, 17.0), (28.29, 25.0), (3.21, 16.79)], [(16.29, 9.0), (17.21, 14.79), (26.38, 22.38), (15.0, 3.71), (20.0, 6.29), (15.38, 29.62), (22.4, 6.4), (15.57, 17.0), (27.71, 25.0), (3.62, 16.38)], [(15.71, 9.0), (17.62, 14.38), (25.98, 21.98), (15.0, 4.29), (20.0, 6.86), (14.98, 30.02), (22.81, 6.81), (16.14, 17.0), (27.14, 25.0), (4.02, 15.98)], [(15.14, 9.0), (18.02, 13.98), (25.57, 21.57), (15.0, 4.86), (20.0, 7.43), (14.57, 30.43), (23.21, 7.21), (16.71, 17.0), (26.57, 25.0), (4.43, 15.57)], [(14.57, 9.0), (18.43, 13.57), (25.17, 21.17), (15.0, 5.43), (20.0, 8.0), (14.17, 30.83), (23.62, 7.62), (17.29, 17.0), (26.0, 25.0), (4.83, 15.17)], [(14.0, 9.0), (18.83, 13.17), (25.17, 20.6), (15.0, 6.0), (20.0, 8.57), (14.74, 30.83), (24.02, 8.02), (17.86, 17.0), (25.6, 25.4), (4.43, 14.77)], [(14.0, 9.57), (19.23, 12.77), (25.17, 20.03), (14.43, 6.0), (20.0, 9.14), (15.31, 30.83), (24.43, 8.43), (18.43, 17.0), (25.19, 25.81), (4.02, 14.36)], [(14.0, 10.14), (19.64, 12.36), (25.17, 19.46), (13.86, 6.0), (20.0, 9.71), (15.88, 30.83), (24.83, 8.83), (19.0, 17.0), (24.79, 26.21), (3.62, 13.96)], [(14.0, 10.71), (20.04, 11.96), (25.17, 18.88), (13.29, 6.0), (20.0, 10.29), (16.46, 30.83), (24.26, 8.83), (18.6, 16.6), (24.38, 26.62), (3.21, 13.55)], [(14.0, 11.29), (20.45, 11.55), (25.17, 18.31), (12.71, 6.0), (20.0, 10.86), (17.03, 30.83), (23.69, 8.83), (18.19, 16.19), (23.98, 27.02), (2.81, 13.15)], [(14.0, 11.86), (20.85, 11.15), (25.17, 17.74), (12.14, 6.0), (20.0, 11.43), (17.6, 30.83), (23.12, 8.83), (17.79, 15.79), (23.57, 27.43), (2.4, 12.74)], [(14.0, 12.43), (21.26, 10.74), (25.17, 17.17), (11.57, 6.0), (20.0, 12.0), (18.17, 30.83), (22.54, 8.83), (17.38, 15.38), (23.17, 27.83), (2.0, 12.34)], [(14.0, 13.0), (21.66, 10.34), (24.6, 17.17), (11.0, 6.0), (20.57, 12.0), (18.17, 30.26), (21.97, 8.83), (16.98, 14.98), (23.17, 27.26), (2.0, 12.91)], [(14.4, 13.4), (22.06, 9.94), (24.03, 17.17), (11.4, 5.6), (21.14, 12.0), (18.17, 29.69), (21.4, 8.83), (16.57, 14.57), (23.17, 26.69), (2.0, 13.48)], [(14.81, 13.81), (22.47, 9.53), (23.46, 17.17), (11.81, 5.19), (21.71, 12.0), (18.17, 29.12), (20.83, 8.83), (16.17, 14.17), (23.17, 26.12), (2.0, 14.05)], [(15.21, 14.21), (22.87, 9.13), (22.88, 17.17), (12.21, 4.79), (22.29, 12.0), (18.17, 28.54), (20.43, 9.23), (15.6, 14.17), (23.17, 25.54), (2.0, 14.63)], [(15.62, 14.62), (23.28, 8.72), (22.31, 17.17), (12.62, 4.38), (22.86, 12.0), (18.17, 27.97), (20.02, 9.64), (15.03, 14.17), (23.17, 24.97), (2.0, 15.2)], [(16.02, 15.02), (23.68, 8.32), (21.74, 17.17), (13.02, 3.98), (23.43, 12.0), (18.17, 27.4), (19.62, 10.04), (14.46, 14.17), (23.17, 24.4), (2.0, 15.77)], [(16.43, 15.43), (24.09, 7.91), (21.17, 17.17), (13.43, 3.57), (24.0, 12.0), (18.17, 26.83), (19.21, 10.45), (13.88, 14.17), (23.17, 23.83), (2.0, 16.34)]]",,0.0,,,2.278
dynamic task,kh15_dt5,13,0,0,0,1,0.8348792406013672,10,"[[(14.57, 3.0), (2.0, 25.0), (2.0, 16.0), (12.19, 11.19), (2.4, 28.6), (10.81, 19.81), (23.0, 21.86), (29.29, 22.0), (9.86, 6.0), (17.0, 5.14)], [(15.14, 3.0), (2.4, 25.4), (2.0, 16.57), (11.79, 10.79), (2.81, 28.19), (11.21, 20.21), (23.0, 21.29), (28.71, 22.0), (9.29, 6.0), (17.0, 5.71)], [(15.71, 3.0), (2.81, 25.81), (2.0, 17.14), (11.38, 10.38), (3.21, 27.79), (11.62, 20.62), (23.0, 20.71), (28.14, 22.0), (8.71, 6.0), (17.0, 6.29)], [(16.29, 3.0), (3.21, 26.21), (2.0, 17.71), (10.98, 9.98), (3.62, 27.38), (12.02, 21.02), (23.0, 20.14), (27.57, 22.0), (8.14, 6.0), (17.0, 6.86)], [(16.86, 3.0), (3.62, 26.62), (2.0, 18.29), (10.57, 9.57), (4.02, 26.98), (12.43, 21.43), (23.0, 19.57), (27.0, 22.0), (7.57, 6.0), (17.0, 7.43)], [(17.43, 3.0), (4.02, 27.02), (2.0, 18.86), (10.17, 9.17), (4.43, 26.57), (12.83, 21.83), (23.0, 19.0), (27.4, 22.4), (7.0, 6.0), (17.0, 8.0)], [(18.0, 3.0), (4.43, 27.43), (2.0, 19.43), (10.17, 9.74), (4.83, 26.17), (13.4, 21.83), (22.6, 18.6), (27.81, 22.81), (7.4, 6.4), (16.6, 7.6)], [(18.4, 3.4), (4.83, 27.83), (2.0, 20.0), (10.17, 10.31), (4.83, 25.6), (13.97, 21.83), (22.19, 18.19), (28.21, 23.21), (7.81, 6.81), (16.19, 7.19)], [(18.81, 3.81), (4.43, 28.23), (2.4, 20.4), (10.17, 10.88), (4.83, 25.03), (14.54, 21.83), (21.79, 17.79), (28.62, 23.62), (8.21, 7.21), (15.79, 6.79)], [(19.21, 4.21), (4.02, 28.64), (2.81, 20.81), (10.17, 11.46), (4.83, 24.46), (15.12, 21.83), (21.38, 17.38), (29.02, 24.02), (8.62, 7.62), (15.38, 6.38)], [(19.62, 4.62), (3.62, 29.04), (3.21, 21.21), (10.17, 12.03), (4.83, 23.88), (15.69, 21.83), (20.98, 16.98), (29.43, 24.43), (9.02, 8.02), (14.98, 5.98)], [(20.02, 5.02), (3.21, 29.45), (3.62, 21.62), (10.17, 12.6), (4.83, 23.31), (16.26, 21.83), (20.57, 16.57), (29.83, 24.83), (9.43, 8.43), (14.57, 5.57)], [(20.43, 5.43), (2.81, 29.85), (4.02, 22.02), (10.17, 13.17), (4.83, 22.74), (16.83, 21.83), (20.17, 16.17), (30.23, 24.43), (9.83, 8.83), (14.17, 5.17)], [(20.83, 5.83), (2.4, 30.26), (4.43, 22.43), (10.57, 12.77), (4.83, 22.17), (16.43, 22.23), (19.77, 16.57), (30.64, 24.02), (9.43, 9.23), (14.57, 4.77)]]",,0.0,,,1.022
dynamic task,kh15_dt5,14,0,0,0,1,0.830205821038362,10,"[[(17.0, 13.0), (23.79, 18.79), (30.4, 8.6), (10.79, 23.21), (7.43, 32.0), (9.4, 15.4), (6.0, 11.0), (18.71, 31.0), (14.43, 6.0), (27.6, 14.6)], [(16.43, 13.0), (23.38, 18.38), (30.81, 8.19), (10.38, 23.62), (6.86, 32.0), (9.81, 15.81), (5.6, 11.4), (19.29, 31.0), (13.86, 6.0), (27.19, 14.19)], [(15.86, 13.0), (22.98, 17.98), (31.21, 7.79), (9.98, 24.02), (6.29, 32.0), (10.21, 16.21), (5.19, 11.81), (19.86, 31.0), (13.29, 6.0), (26.79, 13.79)], [(15.29, 13.0), (22.57, 17.57), (31.62, 7.38), (9.57, 24.43), (5.71, 32.0), (10.62, 16.62), (4.79, 12.21), (20.43, 31.0), (12.71, 6.0), (26.38, 13.38)], [(14.71, 13.0), (22.17, 17.17), (32.02, 6.98), (9.17, 24.83), (5.14, 32.0), (11.02, 17.02), (4.38, 12.62), (21.0, 31.0), (12.14, 6.0), (25.98, 12.98)], [(14.14, 13.0), (21.6, 17.17), (32.43, 6.57), (9.57, 25.23), (4.57, 32.0), (11.43, 17.43), (3.98, 13.02), (21.0, 30.43), (11.57, 6.0), (25.57, 12.57)], [(13.57, 13.0), (21.03, 17.17), (32.83, 6.17), (9.98, 25.64), (4.0, 32.0), (11.83, 17.83), (3.57, 13.43), (21.0, 29.86), (11.0, 6.0), (25.17, 12.17)], [(13.0, 13.0), (20.46, 17.17), (32.83, 6.74), (10.38, 26.04), (4.0, 31.43), (11.26, 17.83), (3.17, 13.83), (21.0, 29.29), (11.4, 6.4), (25.17, 11.6)], [(13.0, 13.57), (19.88, 17.17), (32.83, 7.31), (10.79, 26.45), (4.0, 30.86), (10.69, 17.83), (3.74, 13.83), (21.0, 28.71), (11.81, 6.81), (25.17, 11.03)], [(13.0, 14.14), (19.31, 17.17), (32.83, 7.88), (11.19, 26.85), (4.0, 30.29), (10.12, 17.83), (4.31, 13.83), (21.0, 28.14), (12.21, 7.21), (25.17, 10.46)], [(13.0, 14.71), (18.74, 17.17), (32.83, 8.46), (11.6, 27.26), (4.0, 29.71), (9.54, 17.83), (4.88, 13.83), (21.0, 27.57), (12.62, 7.62), (25.17, 9.88)], [(13.0, 15.29), (18.17, 17.17), (32.83, 9.03), (12.0, 27.66), (4.0, 29.14), (8.97, 17.83), (5.46, 13.83), (21.0, 27.0), (13.02, 8.02), (25.17, 9.31)], [(13.0, 15.86), (18.57, 17.57), (32.83, 9.6), (12.4, 28.06), (4.0, 28.57), (8.4, 17.83), (6.03, 13.83), (20.6, 27.4), (13.43, 8.43), (25.17, 8.74)], [(13.0, 16.43), (18.98, 17.98), (32.83, 10.17), (12.81, 28.47), (4.0, 28.0), (7.83, 17.83), (6.6, 13.83), (20.19, 27.81), (13.83, 8.83), (25.17, 8.17)]]",,0.0,,,0.425
dynamic task,kh15_dt5,15,1,0,1,1,0.6846602327268556,10,"[[(13.0, 14.0), (6.21, 9.79), (9.79, 11.21), (6.0, 5.29), (19.86, 7.0), (22.0, 19.14), (22.57, 22.0), (7.0, 21.0), (15.21, 5.21), (20.81, 20.81)], [(13.0, 14.57), (6.62, 9.38), (9.38, 11.62), (6.0, 4.71), (19.29, 7.0), (22.0, 19.71), (23.14, 22.0), (6.6, 21.4), (15.62, 5.62), (21.21, 21.21)], [(13.0, 15.14), (7.02, 8.98), (8.98, 12.02), (6.0, 4.14), (18.71, 7.0), (22.0, 20.29), (23.71, 22.0), (6.19, 21.81), (16.02, 6.02), (21.62, 21.62)], [(13.0, 15.71), (7.43, 8.57), (8.57, 12.43), (6.0, 3.57), (18.14, 7.0), (22.0, 20.86), (24.29, 22.0), (5.79, 22.21), (16.43, 6.43), (22.02, 22.02)], [(13.0, 16.29), (7.83, 8.17), (8.17, 12.83), (6.0, 3.0), (17.57, 7.0), (22.0, 21.43), (24.86, 22.0), (5.38, 22.62), (16.83, 6.83), (22.43, 22.43)], [(13.0, 16.86), (8.4, 8.17), (8.17, 13.4), (5.43, 3.0), (17.0, 7.0), (22.0, 22.0), (25.43, 22.0), (4.98, 23.02), (16.43, 7.23), (22.83, 22.83)], [(13.0, 17.43), (8.97, 8.17), (8.17, 13.97), (4.86, 3.0), (16.6, 6.6), (22.0, 22.57), (26.0, 22.0), (4.57, 23.43), (16.02, 7.64), (22.26, 22.83)], [(13.0, 18.0), (9.54, 8.17), (8.17, 14.54), (4.29, 3.0), (16.19, 6.19), (22.0, 23.14), (26.4, 21.6), (4.17, 23.83), (15.62, 8.04), (21.69, 22.83)], [(13.0, 18.57), (10.12, 8.17), (8.17, 15.12), (3.71, 3.0), (15.79, 5.79), (22.0, 23.71), (26.81, 21.19), (4.17, 24.4), (15.21, 8.45), (21.12, 22.83)], [(13.0, 19.14), (10.69, 8.17), (8.17, 15.69), (3.14, 3.0), (15.38, 5.38), (22.0, 24.29), (27.21, 20.79), (4.17, 24.97), (14.81, 8.85), (20.54, 22.83)], [(13.0, 19.71), (11.26, 8.17), (8.17, 16.26), (2.57, 3.0), (14.98, 4.98), (22.0, 24.86), (27.62, 20.38), (4.17, 25.54), (14.4, 9.26), (19.97, 22.83)]]","[(22.0, 19.14), (22.0, 19.71), (22.0, 20.29), (22.0, 20.86), (22.0, 21.43), (22.0, 22.0), (22.0, 22.57), (22.0, 23.14), (22.0, 23.71), (22.0, 24.29), (22.0, 24.86)]",278.72,,,1.088
dynamic task,kh15_dt5,16,1,0,0,0,0.7448361273818591,10,"[[(7.0, 14.0), (19.0, 22.0), (20.43, 29.0), (2.57, 22.0), (4.0, 27.0), (24.0, 21.43), (27.0, 11.71), (5.6, 14.4), (15.19, 13.81), (15.79, 28.79)], [(7.4, 13.6), (19.57, 22.0), (19.86, 29.0), (3.14, 22.0), (4.57, 27.0), (24.0, 20.86), (27.0, 12.29), (5.19, 14.81), (14.79, 14.21), (15.38, 28.38)], [(7.81, 13.19), (20.14, 22.0), (19.29, 29.0), (3.71, 22.0), (5.14, 27.0), (24.0, 20.29), (27.0, 12.86), (4.79, 15.21), (14.38, 14.62), (14.98, 27.98)], [(8.21, 12.79), (20.71, 22.0), (18.71, 29.0), (4.29, 22.0), (5.71, 27.0), (24.0, 19.71), (27.0, 13.43), (4.38, 15.62), (13.98, 15.02), (14.57, 27.57)], [(8.62, 12.38), (21.29, 22.0), (18.14, 29.0), (4.86, 22.0), (6.29, 27.0), (24.0, 19.14), (27.0, 14.0), (3.98, 16.02), (13.57, 15.43), (14.17, 27.17)], [(9.02, 11.98), (21.86, 22.0), (17.57, 29.0), (5.43, 22.0), (6.86, 27.0), (24.0, 18.57), (26.6, 14.4), (3.57, 16.43), (13.17, 15.83), (13.77, 27.57)], [(9.43, 11.57), (22.43, 22.0), (17.0, 29.0), (6.0, 22.0), (7.43, 27.0), (24.0, 18.0), (26.19, 14.81), (3.17, 16.83), (12.6, 15.83), (13.36, 27.98)], [(9.83, 11.17), (23.0, 22.0), (16.6, 28.6), (6.0, 22.57), (8.0, 27.0), (24.4, 17.6), (25.79, 15.21), (3.17, 16.26), (12.03, 15.83), (12.96, 28.38)], [(10.23, 11.57), (23.4, 21.6), (16.19, 28.19), (6.0, 23.14), (8.0, 27.57), (24.81, 17.19), (25.38, 15.62), (3.17, 15.69), (11.46, 15.83), (12.55, 28.79)], [(10.64, 11.98), (23.81, 21.19), (15.79, 27.79), (6.0, 23.71), (8.0, 28.14), (25.21, 16.79), (24.98, 16.02), (3.17, 15.12), (10.88, 15.83), (12.15, 29.19)], [(11.04, 12.38), (24.21, 20.79), (15.38, 27.38), (6.0, 24.29), (8.0, 28.71), (25.62, 16.38), (24.57, 16.43), (3.17, 14.54), (10.31, 15.83), (11.74, 29.6)], [(11.45, 12.79), (24.62, 20.38), (14.98, 26.98), (6.0, 24.86), (8.0, 29.29), (26.02, 15.98), (24.17, 16.83), (3.17, 13.97), (9.74, 15.83), (11.34, 30.0)]]","[(20.43, 29.0), (19.86, 29.0), (19.29, 29.0), (18.71, 29.0), (18.14, 29.0), (17.57, 29.0), (17.0, 29.0), (16.6, 28.6), (16.19, 28.19), (15.79, 27.79), (15.38, 27.38), (14.98, 26.98)]",283.74,,,0.685
dynamic task,kh15_dt5,17,1,0,0,0,0.882963408802425,10,"[[(16.0, 8.0), (22.79, 28.21), (10.57, 32.0), (19.81, 2.81), (27.0, 4.86), (30.29, 5.0), (11.0, 10.0), (15.0, 6.0), (14.0, 31.0), (29.14, 18.0)], [(16.4, 8.4), (22.38, 28.62), (11.14, 32.0), (20.21, 3.21), (27.0, 4.29), (29.71, 5.0), (11.4, 9.6), (15.4, 6.4), (14.0, 30.43), (29.71, 18.0)], [(16.81, 8.81), (21.98, 29.02), (11.71, 32.0), (20.62, 3.62), (27.0, 3.71), (29.14, 5.0), (11.81, 9.19), (15.81, 6.81), (14.0, 29.86), (30.29, 18.0)], [(17.21, 9.21), (21.57, 29.43), (12.29, 32.0), (21.02, 4.02), (27.0, 3.14), (28.57, 5.0), (12.21, 8.79), (16.21, 7.21), (14.0, 29.29), (30.86, 18.0)], [(17.62, 9.62), (21.17, 29.83), (12.86, 32.0), (21.43, 4.43), (27.0, 2.57), (28.0, 5.0), (12.62, 8.38), (16.62, 7.62), (14.0, 28.71), (31.43, 18.0)], [(18.02, 10.02), (21.74, 29.83), (13.43, 32.0), (21.83, 4.83), (27.0, 2.0), (28.4, 4.6), (13.02, 7.98), (17.02, 8.02), (14.0, 28.14), (32.0, 18.0)], [(18.43, 10.43), (22.31, 29.83), (14.0, 32.0), (21.26, 4.83), (27.4, 2.4), (28.81, 4.19), (13.43, 7.57), (17.43, 8.43), (14.0, 27.57), (31.6, 17.6)], [(18.83, 10.83), (22.88, 29.83), (14.4, 31.6), (20.69, 4.83), (27.81, 2.81), (29.21, 3.79), (13.83, 7.17), (17.83, 8.83), (14.0, 27.0), (31.19, 17.19)], [(18.43, 11.23), (23.46, 29.83), (14.81, 31.19), (20.12, 4.83), (28.21, 3.21), (29.62, 3.38), (13.26, 7.17), (17.43, 9.23), (14.57, 27.0), (30.79, 16.79)], [(18.02, 11.64), (24.03, 29.83), (15.21, 30.79), (19.54, 4.83), (28.62, 3.62), (30.02, 2.98), (12.69, 7.17), (17.02, 9.64), (15.14, 27.0), (30.38, 16.38)], [(17.62, 12.04), (24.6, 29.83), (15.62, 30.38), (18.97, 4.83), (29.02, 4.02), (30.43, 2.57), (12.12, 7.17), (16.62, 10.04), (15.71, 27.0), (29.98, 15.98)], [(17.21, 12.45), (25.17, 29.83), (16.02, 29.98), (18.4, 4.83), (29.43, 4.43), (30.83, 2.17), (11.54, 7.17), (16.21, 10.45), (16.29, 27.0), (29.57, 15.57)], [(16.81, 12.85), (25.57, 29.43), (16.43, 29.57), (17.83, 4.83), (29.83, 4.83), (30.26, 2.17), (10.97, 7.17), (15.81, 10.85), (16.86, 27.0), (29.17, 15.17)], [(16.4, 13.26), (25.98, 29.02), (16.83, 29.17), (17.43, 5.23), (29.83, 5.4), (29.69, 2.17), (10.4, 7.17), (15.4, 11.26), (17.43, 27.0), (28.77, 15.57)], [(16.0, 13.66), (26.38, 28.62), (16.26, 29.17), (17.02, 5.64), (29.83, 5.97), (29.12, 2.17), (9.83, 7.17), (15.0, 11.66), (18.0, 27.0), (28.36, 15.98)]]","[(19.81, 2.81), (20.21, 3.21), (20.62, 3.62), (21.02, 4.02), (21.43, 4.43), (21.83, 4.83), (21.26, 4.83), (20.69, 4.83), (20.12, 4.83), (19.54, 4.83), (18.97, 4.83), (18.4, 4.83), (17.83, 4.83), (17.43, 5.23), (17.02, 5.64)]",306.02,,,1.504
dynamic task,kh15_dt5,18,0,0,0,1,1.3536982165624067,10,"[[(29.0, 26.14), (9.79, 26.79), (28.0, 15.0), (10.6, 30.6), (6.0, 27.0), (21.0, 10.29), (31.21, 18.79), (15.71, 4.0), (25.0, 10.29), (13.6, 10.6)], [(29.0, 26.71), (9.38, 26.38), (28.4, 14.6), (10.19, 30.19), (6.4, 27.4), (21.0, 9.71), (31.62, 18.38), (16.29, 4.0), (25.0, 9.71), (13.19, 10.19)], [(29.0, 27.29), (8.98, 25.98), (28.81, 14.19), (9.79, 29.79), (6.81, 27.81), (21.0, 9.14), (32.02, 17.98), (16.86, 4.0), (25.0, 9.14), (12.79, 9.79)], [(29.0, 27.86), (8.57, 25.57), (29.21, 13.79), (9.38, 29.38), (7.21, 28.21), (21.0, 8.57), (32.43, 17.57), (17.43, 4.0), (25.0, 8.57), (12.38, 9.38)], [(29.0, 28.43), (8.17, 25.17), (29.62, 13.38), (8.98, 28.98), (7.62, 28.62), (21.0, 8.0), (32.83, 17.17), (18.0, 4.0), (25.0, 8.0), (11.98, 8.98)], [(29.0, 29.0), (7.77, 25.57), (30.02, 12.98), (8.57, 28.57), (8.02, 29.02), (21.4, 8.4), (32.26, 17.17), (18.0, 4.57), (24.6, 8.4), (11.57, 8.57)], [(28.6, 28.6), (7.36, 25.98), (30.43, 12.57), (8.17, 28.17), (8.43, 29.43), (21.81, 8.81), (31.69, 17.17), (18.0, 5.14), (24.19, 8.81), (11.17, 8.17)], [(28.19, 28.19), (6.96, 26.38), (30.83, 12.17), (8.17, 28.74), (8.83, 29.83), (22.21, 9.21), (31.12, 17.17), (18.0, 5.71), (23.79, 9.21), (11.17, 8.74)], [(27.79, 27.79), (6.55, 26.79), (30.83, 11.6), (8.17, 29.31), (8.83, 29.26), (22.62, 9.62), (30.54, 17.17), (18.0, 6.29), (23.38, 9.62), (11.17, 9.31)], [(27.38, 27.38), (6.15, 27.19), (30.83, 11.03), (8.17, 29.88), (8.83, 28.69), (23.02, 10.02), (29.97, 17.17), (18.0, 6.86), (22.98, 10.02), (11.17, 9.88)], [(26.98, 26.98), (5.74, 27.6), (30.83, 10.46), (8.17, 30.46), (8.83, 28.12), (23.43, 10.43), (29.4, 17.17), (18.0, 7.43), (22.57, 10.43), (11.17, 10.46)], [(26.57, 26.57), (5.34, 28.0), (30.83, 9.88), (8.17, 31.03), (8.83, 27.54), (23.83, 10.83), (28.83, 17.17), (18.0, 8.0), (22.17, 10.83), (11.17, 11.03)], [(26.17, 26.17), (5.74, 28.4), (30.83, 9.31), (8.17, 31.6), (8.83, 26.97), (24.23, 11.23), (28.43, 17.57), (17.6, 8.4), (21.6, 10.83), (11.17, 11.6)], [(26.17, 25.6), (6.15, 28.81), (30.83, 8.74), (8.17, 32.17), (8.83, 26.4), (24.64, 11.64), (28.02, 17.98), (17.19, 8.81), (21.03, 10.83), (11.17, 12.17)], [(26.17, 25.03), (6.55, 29.21), (30.83, 8.17), (8.57, 31.77), (8.83, 25.83), (25.04, 12.04), (27.62, 18.38), (16.79, 9.21), (20.46, 10.83), (10.6, 12.17)], [(26.17, 24.46), (6.96, 29.62), (30.83, 7.6), (8.98, 31.36), (8.83, 25.26), (25.45, 12.45), (27.21, 18.79), (16.38, 9.62), (19.88, 10.83), (10.03, 12.17)], [(26.17, 23.88), (7.36, 30.02), (30.83, 7.03), (9.38, 30.96), (8.83, 24.69), (25.85, 12.85), (26.81, 19.19), (15.98, 10.02), (19.31, 10.83), (9.46, 12.17)], [(26.17, 23.31), (7.77, 30.43), (30.83, 6.46), (9.79, 30.55), (8.83, 24.12), (26.26, 13.26), (26.4, 19.6), (15.57, 10.43), (18.74, 10.83), (8.88, 12.17)], [(26.17, 22.74), (8.17, 30.83), (30.83, 5.88), (10.19, 30.15), (8.83, 23.54), (26.66, 13.66), (26.0, 20.0), (15.17, 10.83), (18.17, 10.83), (8.31, 12.17)], [(26.17, 22.17), (8.17, 30.26), (30.83, 5.31), (10.6, 29.74), (8.83, 22.97), (27.23, 13.66), (25.6, 19.6), (14.77, 11.23), (18.17, 10.26), (7.74, 12.17)], [(25.77, 22.57), (8.17, 29.69), (30.83, 4.74), (11.0, 29.34), (8.83, 22.4), (27.8, 13.66), (25.19, 19.19), (14.36, 11.64), (18.17, 9.69), (7.17, 12.17)], [(25.36, 22.98), (8.17, 29.12), (30.83, 4.17), (10.6, 28.94), (8.83, 21.83), (28.37, 13.66), (24.79, 18.79), (13.96, 12.04), (18.17, 9.12), (6.77, 11.77)], [(24.96, 23.38), (8.17, 28.54), (30.43, 4.57), (10.19, 28.53), (8.43, 22.23), (28.95, 13.66), (24.38, 18.38), (13.55, 12.45), (18.17, 8.54), (6.36, 11.36)], [(24.55, 23.79), (8.17, 27.97), (30.02, 4.98), (9.79, 28.13), (8.02, 22.64), (29.52, 13.66), (23.98, 17.98), (13.15, 12.85), (18.17, 7.97), (5.96, 10.96)], [(24.15, 24.19), (8.17, 27.4), (29.62, 5.38), (9.38, 27.72), (7.62, 23.04), (30.09, 13.66), (23.57, 17.57), (12.74, 13.26), (18.17, 7.4), (5.55, 10.55)]]",,0.0,,,0.701
dynamic task,kh15_dt5,19,1,0,0,0,0.8762872170455012,10,"[[(30.0, 27.29), (4.4, 8.4), (10.21, 17.21), (28.79, 22.79), (9.6, 22.6), (7.0, 25.0), (7.79, 9.79), (20.81, 24.19), (4.29, 23.0), (4.0, 23.0)], [(30.0, 26.71), (4.81, 8.81), (10.62, 17.62), (28.38, 22.38), (9.19, 22.19), (7.57, 25.0), (7.38, 9.38), (21.21, 23.79), (3.71, 23.0), (4.0, 22.43)], [(30.0, 26.14), (5.21, 9.21), (11.02, 18.02), (27.98, 21.98), (8.79, 21.79), (8.14, 25.0), (6.98, 8.98), (21.62, 23.38), (3.14, 23.0), (4.0, 21.86)], [(30.0, 25.57), (5.62, 9.62), (11.43, 18.43), (27.57, 21.57), (8.38, 21.38), (8.71, 25.0), (6.57, 8.57), (22.02, 22.98), (2.57, 23.0), (4.0, 21.29)], [(30.0, 25.0), (6.02, 10.02), (11.83, 18.83), (27.17, 21.17), (7.98, 20.98), (9.29, 25.0), (6.17, 8.17), (22.43, 22.57), (2.0, 23.0), (4.0, 20.71)], [(29.6, 24.6), (6.43, 10.43), (11.83, 19.4), (27.57, 20.77), (7.57, 20.57), (9.86, 25.0), (5.77, 7.77), (22.83, 22.17), (2.4, 23.4), (4.0, 20.14)], [(29.19, 24.19), (6.83, 10.83), (11.83, 19.97), (27.98, 20.36), (7.17, 20.17), (10.43, 25.0), (5.36, 7.36), (22.43, 21.77), (2.81, 23.81), (4.0, 19.57)], [(28.79, 23.79), (6.43, 11.23), (11.83, 20.54), (28.38, 19.96), (7.17, 19.6), (11.0, 25.0), (4.96, 6.96), (22.02, 21.36), (3.21, 24.21), (4.0, 19.0)], [(28.38, 23.38), (6.02, 11.64), (11.83, 21.12), (28.79, 19.55), (7.17, 19.03), (11.0, 24.43), (4.55, 6.55), (21.62, 20.96), (3.62, 24.62), (4.4, 19.4)], [(27.98, 22.98), (5.62, 12.04), (11.83, 21.69), (29.19, 19.15), (7.17, 18.46), (11.0, 23.86), (4.15, 6.15), (21.21, 20.55), (4.02, 25.02), (4.81, 19.81)], [(27.57, 22.57), (5.21, 12.45), (11.83, 22.26), (29.6, 18.74), (7.17, 17.88), (11.0, 23.29), (3.74, 5.74), (20.81, 20.15), (4.43, 25.43), (5.21, 20.21)], [(27.17, 22.17), (4.81, 12.85), (11.83, 22.83), (30.0, 18.34), (7.17, 17.31), (11.0, 22.71), (3.34, 5.34), (20.4, 19.74), (4.83, 25.83), (5.62, 20.62)], [(26.6, 22.17), (4.4, 13.26), (11.43, 22.43), (29.6, 17.94), (7.17, 16.74), (11.0, 22.14), (3.34, 5.91), (20.0, 19.34), (5.23, 25.43), (6.02, 21.02)], [(26.03, 22.17), (4.0, 13.66), (11.02, 22.02), (29.19, 17.53), (7.17, 16.17), (11.0, 21.57), (3.34, 6.48), (19.43, 19.34), (5.64, 25.02), (6.43, 21.43)], [(25.46, 22.17), (4.4, 14.06), (10.62, 21.62), (28.79, 17.13), (6.77, 15.77), (11.0, 21.0), (3.34, 7.05), (18.86, 19.34), (6.04, 24.62), (6.83, 21.83)]]","[(4.29, 23.0), (3.71, 23.0), (3.14, 23.0), (2.57, 23.0), (2.0, 23.0), (2.4, 23.4), (2.81, 23.81), (3.21, 24.21), (3.62, 24.62), (4.02, 25.02), (4.43, 25.43), (4.83, 25.83), (5.23, 25.43), (5.64, 25.02), (6.04, 24.62)]",307.77,,,0.324
dynamic task,kh15_dt5,20,1,0,1,1,0.8335642546835516,10,"[[(17.0, 20.0), (13.21, 12.79), (5.0, 23.0), (18.14, 15.0), (2.0, 17.0), (4.19, 11.19), (5.19, 14.81), (27.0, 27.0), (24.0, 10.14), (8.4, 22.6)], [(16.6, 19.6), (13.62, 12.38), (4.6, 22.6), (18.71, 15.0), (2.4, 16.6), (3.79, 10.79), (4.79, 15.21), (27.4, 26.6), (24.0, 10.71), (8.81, 22.19)], [(16.19, 19.19), (14.02, 11.98), (4.19, 22.19), (19.29, 15.0), (2.81, 16.19), (3.38, 10.38), (4.38, 15.62), (27.81, 26.19), (24.0, 11.29), (9.21, 21.79)], [(15.79, 18.79), (14.43, 11.57), (3.79, 21.79), (19.86, 15.0), (3.21, 15.79), (2.98, 9.98), (3.98, 16.02), (28.21, 25.79), (24.0, 11.86), (9.62, 21.38)], [(15.38, 18.38), (14.83, 11.17), (3.38, 21.38), (20.43, 15.0), (3.62, 15.38), (2.57, 9.57), (3.57, 16.43), (28.62, 25.38), (24.0, 12.43), (10.02, 20.98)], [(14.98, 17.98), (14.83, 10.6), (2.98, 20.98), (21.0, 15.0), (4.02, 14.98), (2.17, 9.17), (3.17, 16.83), (29.02, 24.98), (24.0, 13.0), (10.43, 20.57)], [(14.57, 17.57), (14.83, 10.03), (2.57, 20.57), (21.4, 14.6), (4.43, 14.57), (2.57, 8.77), (3.74, 16.83), (29.43, 24.57), (23.43, 13.0), (10.83, 20.17)], [(14.17, 17.17), (14.83, 9.46), (2.17, 20.17), (21.81, 14.19), (4.83, 14.17), (2.98, 8.36), (4.31, 16.83), (29.83, 24.17), (22.86, 13.0), (10.26, 20.17)], [(13.77, 16.77), (14.83, 8.88), (2.17, 20.74), (22.21, 13.79), (5.23, 13.77), (3.38, 7.96), (4.88, 16.83), (29.43, 23.77), (22.29, 13.0), (9.69, 20.17)], [(13.36, 16.36), (14.83, 8.31), (2.17, 21.31), (22.62, 13.38), (5.64, 13.36), (3.79, 7.55), (5.46, 16.83), (29.02, 23.36), (21.71, 13.0), (9.12, 20.17)], [(12.96, 15.96), (14.83, 7.74), (2.17, 21.88), (23.02, 12.98), (6.04, 12.96), (4.19, 7.15), (6.03, 16.83), (28.62, 22.96), (21.14, 13.0), (8.54, 20.17)], [(12.55, 15.55), (14.83, 7.17), (2.17, 22.46), (23.43, 12.57), (6.45, 12.55), (4.6, 6.74), (6.6, 16.83), (28.21, 22.55), (20.57, 13.0), (7.97, 20.17)], [(12.15, 15.15), (14.43, 7.57), (2.17, 23.03), (23.83, 12.17), (6.85, 12.15), (5.0, 6.34), (7.17, 16.83), (27.81, 22.15), (20.0, 13.0), (7.4, 20.17)], [(11.74, 14.74), (14.02, 7.98), (2.17, 23.6), (23.83, 12.74), (7.26, 11.74), (5.0, 6.91), (6.77, 16.43), (27.4, 21.74), (20.4, 12.6), (6.83, 20.17)]]","[(18.14, 15.0), (18.71, 15.0), (19.29, 15.0), (19.86, 15.0), (20.43, 15.0), (21.0, 15.0), (21.4, 14.6), (21.81, 14.19), (22.21, 13.79), (22.62, 13.38), (23.02, 12.98), (23.43, 12.57), (23.83, 12.17), (23.83, 12.74)]",300.41,,,2.259
dynamic task,kh15_dt5,21,1,0,0,0,0.9345718416652744,10,"[[(27.0, 32.0), (24.0, 5.29), (30.0, 32.0), (27.4, 15.4), (9.86, 31.0), (12.29, 17.0), (12.43, 24.0), (4.0, 17.29), (8.0, 11.0), (30.81, 24.81)], [(27.0, 31.43), (24.0, 4.71), (29.6, 31.6), (27.81, 15.81), (9.29, 31.0), (11.71, 17.0), (11.86, 24.0), (4.0, 16.71), (8.4, 10.6), (31.21, 25.21)], [(27.0, 30.86), (24.0, 4.14), (29.19, 31.19), (28.21, 16.21), (8.71, 31.0), (11.14, 17.0), (11.29, 24.0), (4.0, 16.14), (8.81, 10.19), (31.62, 25.62)], [(27.0, 30.29), (24.0, 3.57), (28.79, 30.79), (28.62, 16.62), (8.14, 31.0), (10.57, 17.0), (10.71, 24.0), (4.0, 15.57), (9.21, 9.79), (32.02, 26.02)], [(27.0, 29.71), (24.0, 3.0), (28.38, 30.38), (29.02, 17.02), (7.57, 31.0), (10.0, 17.0), (10.14, 24.0), (4.0, 15.0), (9.62, 9.38), (32.43, 26.43)], [(27.0, 29.14), (23.6, 3.4), (27.98, 29.98), (29.43, 17.43), (7.0, 31.0), (10.0, 17.57), (9.57, 24.0), (4.4, 14.6), (10.02, 8.98), (32.83, 26.83)], [(27.0, 28.57), (23.19, 3.81), (27.57, 29.57), (29.83, 17.83), (6.6, 30.6), (10.0, 18.14), (9.0, 24.0), (4.81, 14.19), (10.43, 8.57), (32.83, 27.4)], [(27.0, 28.0), (22.79, 4.21), (27.17, 29.17), (29.83, 18.4), (6.19, 30.19), (10.0, 18.71), (8.43, 24.0), (5.21, 13.79), (10.83, 8.17), (32.83, 27.97)], [(26.6, 28.4), (22.38, 4.62), (27.57, 28.77), (29.83, 18.97), (5.79, 29.79), (10.0, 19.29), (7.86, 24.0), (5.62, 13.38), (10.83, 8.74), (32.83, 28.54)], [(26.19, 28.81), (21.98, 5.02), (27.98, 28.36), (29.83, 19.54), (5.38, 29.38), (10.0, 19.86), (7.29, 24.0), (6.02, 12.98), (10.83, 9.31), (32.83, 29.12)], [(25.79, 29.21), (21.57, 5.43), (28.38, 27.96), (29.83, 20.12), (4.98, 28.98), (10.0, 20.43), (6.71, 24.0), (6.43, 12.57), (10.83, 9.88), (32.83, 29.69)], [(25.38, 29.62), (21.17, 5.83), (28.79, 27.55), (29.83, 20.69), (4.57, 28.57), (10.0, 21.0), (6.14, 24.0), (6.83, 12.17), (10.83, 10.46), (32.83, 30.26)], [(24.98, 30.02), (20.77, 5.43), (29.19, 27.15), (29.83, 21.26), (4.17, 28.17), (10.4, 20.6), (5.57, 24.0), (7.4, 12.17), (10.83, 11.03), (32.83, 30.83)], [(24.57, 30.43), (20.36, 5.02), (29.6, 26.74), (29.83, 21.83), (4.74, 28.17), (10.81, 20.19), (5.0, 24.0), (7.97, 12.17), (10.83, 11.6), (32.43, 30.43)], [(24.17, 30.83), (19.96, 4.62), (30.0, 26.34), (29.26, 21.83), (5.31, 28.17), (11.21, 19.79), (5.0, 24.57), (8.54, 12.17), (10.83, 12.17), (32.02, 30.02)], [(23.77, 30.43), (19.55, 4.21), (29.43, 26.34), (28.69, 21.83), (5.88, 28.17), (11.62, 19.38), (5.0, 25.14), (9.12, 12.17), (11.23, 11.77), (31.62, 29.62)]]","[(30.0, 32.0), (29.6, 31.6), (29.19, 31.19), (28.79, 30.79), (28.38, 30.38), (27.98, 29.98), (27.57, 29.57), (27.17, 29.17), (27.57, 28.77), (27.98, 28.36), (28.38, 27.96), (28.79, 27.55), (29.19, 27.15), (29.6, 26.74), (30.0, 26.34), (29.43, 26.34)]",306.69,,,2.216
dynamic task,kh15_dt5,22,1,0,1,1,0.843524071239699,10,"[[(21.0, 23.0), (26.0, 6.29), (6.0, 27.0), (3.71, 4.0), (13.0, 32.0), (2.0, 29.43), (15.86, 10.0), (29.0, 30.29), (21.0, 28.0), (16.0, 8.14)], [(20.43, 23.0), (26.0, 5.71), (6.4, 27.4), (4.29, 4.0), (12.43, 32.0), (2.0, 28.86), (15.29, 10.0), (29.0, 29.71), (21.57, 28.0), (16.0, 8.71)], [(19.86, 23.0), (26.0, 5.14), (6.81, 27.81), (4.86, 4.0), (11.86, 32.0), (2.0, 28.29), (14.71, 10.0), (29.0, 29.14), (22.14, 28.0), (16.0, 9.29)], [(19.29, 23.0), (26.0, 4.57), (7.21, 28.21), (5.43, 4.0), (11.29, 32.0), (2.0, 27.71), (14.14, 10.0), (29.0, 28.57), (22.71, 28.0), (16.0, 9.86)], [(18.71, 23.0), (26.0, 4.0), (7.62, 28.62), (6.0, 4.0), (10.71, 32.0), (2.0, 27.14), (13.57, 10.0), (29.0, 28.0), (23.29, 28.0), (16.0, 10.43)], [(18.14, 23.0), (25.43, 4.0), (8.02, 29.02), (6.4, 4.4), (10.14, 32.0), (2.0, 26.57), (13.0, 10.0), (28.6, 27.6), (23.86, 28.0), (16.0, 11.0)], [(17.57, 23.0), (24.86, 4.0), (8.43, 29.43), (6.81, 4.81), (9.57, 32.0), (2.0, 26.0), (13.0, 9.43), (28.19, 27.19), (24.43, 28.0), (15.43, 11.0)], [(17.0, 23.0), (24.29, 4.0), (8.83, 29.83), (7.21, 5.21), (9.0, 32.0), (2.57, 26.0), (13.0, 8.86), (27.79, 26.79), (25.0, 28.0), (14.86, 11.0)], [(17.0, 23.57), (23.71, 4.0), (8.83, 29.26), (7.62, 5.62), (9.0, 31.43), (3.14, 26.0), (13.0, 8.29), (27.38, 26.38), (25.4, 27.6), (14.29, 11.0)], [(17.0, 24.14), (23.14, 4.0), (8.83, 28.69), (8.02, 6.02), (9.0, 30.86), (3.71, 26.0), (13.0, 7.71), (26.98, 25.98), (25.81, 27.19), (13.71, 11.0)], [(17.0, 24.71), (22.57, 4.0), (8.83, 28.12), (8.43, 6.43), (9.0, 30.29), (4.29, 26.0), (13.0, 7.14), (26.57, 25.57), (26.21, 26.79), (13.14, 11.0)], [(17.0, 25.29), (22.0, 4.0), (8.83, 27.54), (8.83, 6.83), (9.0, 29.71), (4.86, 26.0), (13.0, 6.57), (26.17, 25.17), (26.62, 26.38), (12.57, 11.0)], [(17.0, 25.86), (21.43, 4.0), (8.83, 26.97), (9.23, 7.23), (9.0, 29.14), (5.43, 26.0), (13.0, 6.0), (25.77, 25.57), (27.02, 25.98), (12.0, 11.0)], [(17.0, 26.43), (20.86, 4.0), (8.83, 26.4), (9.64, 7.64), (9.0, 28.57), (6.0, 26.0), (12.6, 6.4), (25.36, 25.98), (27.43, 25.57), (12.0, 11.57)]]","[(15.86, 10.0), (15.29, 10.0), (14.71, 10.0), (14.14, 10.0), (13.57, 10.0), (13.0, 10.0), (13.0, 9.43), (13.0, 8.86), (13.0, 8.29), (13.0, 7.71), (13.0, 7.14), (13.0, 6.57), (13.0, 6.0), (12.6, 6.4)]",296.72,,,0.201
dynamic task,kh15_dt5,23,0,0,0,1,0.9867301053272968,10,"[[(9.81, 31.19), (11.0, 3.57), (17.0, 27.0), (14.6, 15.6), (5.0, 9.0), (26.0, 18.57), (16.79, 22.21), (4.0, 8.14), (5.43, 32.0), (14.0, 29.0)], [(10.21, 30.79), (11.0, 4.14), (16.43, 27.0), (14.19, 15.19), (5.4, 8.6), (26.0, 19.14), (16.38, 22.62), (4.0, 8.71), (4.86, 32.0), (14.57, 29.0)], [(10.62, 30.38), (11.0, 4.71), (15.86, 27.0), (13.79, 14.79), (5.81, 8.19), (26.0, 19.71), (15.98, 23.02), (4.0, 9.29), (4.29, 32.0), (15.14, 29.0)], [(11.02, 29.98), (11.0, 5.29), (15.29, 27.0), (13.38, 14.38), (6.21, 7.79), (26.0, 20.29), (15.57, 23.43), (4.0, 9.86), (3.71, 32.0), (15.71, 29.0)], [(11.43, 29.57), (11.0, 5.86), (14.71, 27.0), (12.98, 13.98), (6.62, 7.38), (26.0, 20.86), (15.17, 23.83), (4.0, 10.43), (3.14, 32.0), (16.29, 29.0)], [(11.83, 29.17), (11.0, 6.43), (14.14, 27.0), (12.57, 13.57), (7.02, 6.98), (26.0, 21.43), (15.17, 23.26), (4.0, 11.0), (2.57, 32.0), (16.86, 29.0)], [(11.26, 29.17), (11.0, 7.0), (13.57, 27.0), (12.17, 13.17), (7.43, 6.57), (26.0, 22.0), (15.17, 22.69), (4.57, 11.0), (2.0, 32.0), (17.43, 29.0)], [(10.69, 29.17), (10.6, 6.6), (13.0, 27.0), (12.17, 13.74), (7.83, 6.17), (26.57, 22.0), (15.17, 22.12), (5.14, 11.0), (2.4, 31.6), (18.0, 29.0)], [(10.12, 29.17), (10.19, 6.19), (12.6, 26.6), (12.17, 14.31), (7.43, 5.77), (27.14, 22.0), (15.17, 21.54), (5.71, 11.0), (2.81, 31.19), (17.6, 29.4)], [(9.54, 29.17), (9.79, 5.79), (12.19, 26.19), (12.17, 14.88), (7.02, 5.36), (27.71, 22.0), (15.17, 20.97), (6.29, 11.0), (3.21, 30.79), (17.19, 29.81)], [(8.97, 29.17), (9.38, 5.38), (11.79, 25.79), (12.17, 15.46), (6.62, 4.96), (28.29, 22.0), (15.17, 20.4), (6.86, 11.0), (3.62, 30.38), (16.79, 30.21)], [(8.4, 29.17), (8.98, 4.98), (11.38, 25.38), (12.17, 16.03), (6.21, 4.55), (28.86, 22.0), (15.17, 19.83), (7.43, 11.0), (4.02, 29.98), (16.38, 30.62)], [(7.83, 29.17), (8.57, 4.57), (10.98, 24.98), (12.17, 16.6), (5.81, 4.15), (29.43, 22.0), (14.6, 19.83), (8.0, 11.0), (4.43, 29.57), (15.98, 31.02)], [(7.43, 28.77), (8.17, 4.17), (10.57, 24.57), (12.17, 17.17), (5.4, 3.74), (30.0, 22.0), (14.03, 19.83), (7.6, 10.6), (4.83, 29.17), (15.57, 31.43)], [(7.02, 28.36), (8.74, 4.17), (10.17, 24.17), (11.6, 17.17), (5.0, 3.34), (29.6, 21.6), (13.46, 19.83), (7.19, 10.19), (4.43, 28.77), (15.17, 31.83)], [(6.62, 27.96), (9.31, 4.17), (10.17, 24.74), (11.03, 17.17), (4.6, 3.74), (29.19, 21.19), (12.88, 19.83), (6.79, 9.79), (4.02, 28.36), (15.17, 31.26)], [(6.21, 27.55), (9.88, 4.17), (10.17, 25.31), (10.46, 17.17), (4.19, 4.15), (28.79, 20.79), (12.31, 19.83), (6.38, 9.38), (3.62, 27.96), (15.17, 30.69)]]",,0.0,,,1.268
dynamic task,kh15_dt5,24,0,0,1,0,1.330110105537642,10,"[[(7.21, 23.21), (24.0, 6.86), (30.86, 14.0), (32.0, 23.43), (22.0, 8.0), (23.21, 22.79), (30.43, 5.0), (31.6, 26.4), (23.0, 16.0), (7.4, 10.6)], [(7.62, 23.62), (24.0, 6.29), (30.29, 14.0), (32.0, 22.86), (22.4, 8.4), (23.62, 22.38), (29.86, 5.0), (31.19, 26.81), (22.6, 16.4), (7.81, 10.19)], [(8.02, 24.02), (24.0, 5.71), (29.71, 14.0), (32.0, 22.29), (22.81, 8.81), (24.02, 21.98), (29.29, 5.0), (30.79, 27.21), (22.19, 16.81), (8.21, 9.79)], [(8.43, 24.43), (24.0, 5.14), (29.14, 14.0), (32.0, 21.71), (23.21, 9.21), (24.43, 21.57), (28.71, 5.0), (30.38, 27.62), (21.79, 17.21), (8.62, 9.38)], [(8.83, 24.83), (24.0, 4.57), (28.57, 14.0), (32.0, 21.14), (23.62, 9.62), (24.83, 21.17), (28.14, 5.0), (29.98, 28.02), (21.38, 17.62), (9.02, 8.98)], [(9.23, 24.43), (24.0, 4.0), (28.0, 14.0), (32.0, 20.57), (24.02, 10.02), (24.26, 21.17), (27.57, 5.0), (29.57, 28.43), (20.98, 18.02), (9.43, 8.57)], [(9.64, 24.02), (23.43, 4.0), (28.0, 13.43), (32.0, 20.0), (24.43, 10.43), (23.69, 21.17), (27.0, 5.0), (29.17, 28.83), (20.57, 18.43), (9.83, 8.17)], [(10.04, 23.62), (22.86, 4.0), (28.0, 12.86), (31.6, 19.6), (24.83, 10.83), (23.12, 21.17), (26.43, 5.0), (29.17, 28.26), (20.17, 18.83), (9.43, 7.77)], [(10.45, 23.21), (22.29, 4.0), (28.0, 12.29), (31.19, 19.19), (24.83, 11.4), (22.54, 21.17), (25.86, 5.0), (29.17, 27.69), (20.74, 18.83), (9.02, 7.36)], [(10.85, 22.81), (21.71, 4.0), (28.0, 11.71), (30.79, 18.79), (24.83, 11.97), (21.97, 21.17), (25.29, 5.0), (29.17, 27.12), (21.31, 18.83), (8.62, 6.96)], [(11.26, 22.4), (21.14, 4.0), (28.0, 11.14), (30.38, 18.38), (24.83, 12.54), (21.4, 21.17), (24.71, 5.0), (29.17, 26.54), (21.88, 18.83), (8.21, 6.55)], [(11.66, 22.0), (20.57, 4.0), (28.0, 10.57), (29.98, 17.98), (24.83, 13.12), (20.83, 21.17), (24.14, 5.0), (29.17, 25.97), (22.46, 18.83), (7.81, 6.15)], [(12.06, 22.4), (20.0, 4.0), (28.0, 10.0), (29.57, 17.57), (24.83, 13.69), (20.43, 20.77), (23.57, 5.0), (29.17, 25.4), (23.03, 18.83), (7.4, 5.74)], [(12.47, 22.81), (19.6, 4.4), (28.4, 10.4), (29.17, 17.17), (24.83, 14.26), (20.02, 20.36), (23.0, 5.0), (29.17, 24.83), (23.6, 18.83), (7.0, 5.34)], [(12.87, 23.21), (19.19, 4.81), (28.81, 10.81), (29.17, 17.74), (24.83, 14.83), (19.62, 19.96), (22.6, 4.6), (29.57, 25.23), (24.17, 18.83), (6.6, 5.74)], [(13.28, 23.62), (18.79, 5.21), (29.21, 11.21), (29.17, 18.31), (25.23, 14.43), (19.21, 19.55), (22.19, 4.19), (29.98, 25.64), (24.57, 18.43), (6.19, 6.15)], [(13.68, 24.02), (18.38, 5.62), (29.62, 11.62), (29.17, 18.88), (25.64, 14.02), (18.81, 19.15), (21.79, 3.79), (30.38, 26.04), (24.98, 18.02), (5.79, 6.55)], [(14.09, 24.43), (17.98, 6.02), (30.02, 12.02), (29.17, 19.46), (26.04, 13.62), (18.4, 18.74), (21.38, 3.38), (30.79, 26.45), (25.38, 17.62), (5.38, 6.96)], [(14.49, 24.83), (17.57, 6.43), (30.43, 12.43), (29.17, 20.03), (26.45, 13.21), (18.0, 18.34), (20.98, 2.98), (31.19, 26.85), (25.79, 17.21), (4.98, 7.36)], [(13.92, 24.83), (17.17, 6.83), (30.83, 12.83), (29.17, 20.6), (26.85, 12.81), (18.4, 17.94), (20.57, 2.57), (31.6, 27.26), (26.19, 16.81), (4.57, 7.77)], [(13.35, 24.83), (17.17, 6.26), (30.83, 12.26), (29.17, 21.17), (27.26, 12.4), (18.81, 17.53), (20.17, 2.17), (32.0, 27.66), (26.6, 16.4), (4.17, 8.17)], [(12.78, 24.83), (17.17, 5.69), (30.83, 11.69), (29.17, 21.74), (27.66, 12.0), (19.21, 17.13), (20.17, 2.74), (31.43, 27.66), (27.0, 16.0), (4.17, 8.74)], [(12.2, 24.83), (17.17, 5.12), (30.83, 11.12), (29.17, 22.31), (27.66, 12.57), (19.62, 16.72), (20.17, 3.31), (30.86, 27.66), (26.6, 15.6), (4.17, 9.31)], [(11.63, 24.83), (17.17, 4.54), (30.83, 10.54), (29.17, 22.88), (27.66, 13.14), (20.02, 16.32), (20.17, 3.88), (30.29, 27.66), (26.19, 15.19), (4.17, 9.88)]]",,0.0,,,0.624
dynamic task,kh15_dt5,25,1,0,1,1,1.2107240045661456,10,"[[(29.6, 12.4), (29.21, 9.79), (17.86, 16.0), (8.6, 14.6), (23.0, 23.0), (28.57, 31.0), (25.57, 11.0), (7.19, 6.81), (29.79, 22.79), (18.81, 30.19)], [(29.19, 12.81), (29.62, 9.38), (17.29, 16.0), (8.19, 14.19), (22.6, 22.6), (29.14, 31.0), (26.14, 11.0), (6.79, 7.21), (29.38, 22.38), (19.21, 29.79)], [(28.79, 13.21), (30.02, 8.98), (16.71, 16.0), (7.79, 13.79), (22.19, 22.19), (29.71, 31.0), (26.71, 11.0), (6.38, 7.62), (28.98, 21.98), (19.62, 29.38)], [(28.38, 13.62), (30.43, 8.57), (16.14, 16.0), (7.38, 13.38), (21.79, 21.79), (30.29, 31.0), (27.29, 11.0), (5.98, 8.02), (28.57, 21.57), (20.02, 28.98)], [(27.98, 14.02), (30.83, 8.17), (15.57, 16.0), (6.98, 12.98), (21.38, 21.38), (30.86, 31.0), (27.86, 11.0), (5.57, 8.43), (28.17, 21.17), (20.43, 28.57)], [(27.57, 14.43), (30.83, 8.74), (15.0, 16.0), (6.57, 12.57), (20.98, 20.98), (31.43, 31.0), (28.43, 11.0), (5.17, 8.83), (27.77, 21.57), (20.83, 28.17)], [(27.17, 14.83), (30.83, 9.31), (15.4, 16.4), (6.17, 12.17), (20.57, 20.57), (32.0, 31.0), (29.0, 11.0), (5.17, 8.26), (27.36, 21.98), (21.23, 28.57)], [(27.17, 15.4), (30.83, 9.88), (15.81, 16.81), (5.77, 12.57), (20.17, 20.17), (31.6, 30.6), (28.6, 11.4), (5.17, 7.69), (26.96, 22.38), (21.64, 28.98)], [(27.17, 15.97), (30.83, 10.46), (16.21, 17.21), (5.36, 12.98), (19.6, 20.17), (31.19, 30.19), (28.19, 11.81), (5.17, 7.12), (26.55, 22.79), (22.04, 29.38)], [(27.17, 16.54), (30.83, 11.03), (16.62, 17.62), (4.96, 13.38), (19.03, 20.17), (30.79, 29.79), (27.79, 12.21), (5.17, 6.54), (26.15, 23.19), (22.45, 29.79)], [(27.17, 17.12), (30.83, 11.6), (17.02, 18.02), (4.55, 13.79), (18.46, 20.17), (30.38, 29.38), (27.38, 12.62), (5.17, 5.97), (25.74, 23.6), (22.85, 30.19)], [(27.17, 17.69), (30.83, 12.17), (17.43, 18.43), (4.15, 14.19), (17.88, 20.17), (29.98, 28.98), (26.98, 13.02), (5.17, 5.4), (25.34, 24.0), (23.26, 30.6)], [(27.17, 18.26), (30.43, 11.77), (17.83, 18.83), (3.74, 14.6), (17.31, 20.17), (29.57, 28.57), (26.57, 13.43), (5.17, 4.83), (25.91, 24.0), (23.66, 31.0)], [(27.17, 18.83), (30.02, 11.36), (17.26, 18.83), (3.34, 15.0), (16.74, 20.17), (29.17, 28.17), (26.17, 13.83), (5.57, 5.23), (26.48, 24.0), (24.23, 31.0)], [(26.77, 18.43), (29.62, 10.96), (16.69, 18.83), (3.34, 14.43), (16.17, 20.17), (29.17, 28.74), (26.74, 13.83), (5.98, 5.64), (27.05, 24.0), (24.8, 31.0)], [(26.36, 18.02), (29.21, 10.55), (16.12, 18.83), (3.34, 13.86), (15.6, 20.17), (29.17, 29.31), (27.31, 13.83), (6.38, 6.04), (27.63, 24.0), (25.37, 31.0)], [(25.96, 17.62), (28.81, 10.15), (15.54, 18.83), (3.34, 13.29), (15.03, 20.17), (29.17, 29.88), (27.88, 13.83), (6.79, 6.45), (28.2, 24.0), (25.95, 31.0)], [(25.55, 17.21), (28.4, 9.74), (14.97, 18.83), (3.34, 12.71), (14.46, 20.17), (29.17, 30.46), (28.46, 13.83), (7.19, 6.85), (28.77, 24.0), (26.52, 31.0)], [(25.15, 16.81), (28.0, 9.34), (14.4, 18.83), (3.34, 12.14), (13.88, 20.17), (29.17, 31.03), (29.03, 13.83), (7.6, 7.26), (29.34, 24.0), (27.09, 31.0)], [(24.74, 16.4), (28.0, 9.91), (13.83, 18.83), (3.34, 11.57), (13.31, 20.17), (29.17, 31.6), (29.6, 13.83), (8.0, 7.66), (29.34, 24.57), (27.66, 31.0)], [(24.34, 16.0), (28.0, 10.48), (13.83, 18.26), (3.34, 11.0), (12.74, 20.17), (29.17, 32.17), (30.17, 13.83), (7.6, 8.06), (29.34, 25.14), (27.26, 30.6)], [(24.34, 15.43), (28.0, 11.05), (13.83, 17.69), (3.74, 11.4), (12.17, 20.17), (28.77, 31.77), (30.17, 13.26), (7.19, 8.47), (29.34, 25.71), (26.85, 30.19)]]","[(25.57, 11.0), (26.14, 11.0), (26.71, 11.0), (27.29, 11.0), (27.86, 11.0), (28.43, 11.0), (29.0, 11.0), (28.6, 11.4), (28.19, 11.81), (27.79, 12.21), (27.38, 12.62), (26.98, 13.02), (26.57, 13.43), (26.17, 13.83), (26.74, 13.83), (27.31, 13.83), (27.88, 13.83), (28.46, 13.83), (29.03, 13.83), (29.6, 13.83), (30.17, 13.83), (30.17, 13.26)]",336.22,,,0.496
dynamic task,kh15_dt5,26,0,0,0,1,0.8276745513667265,10,"[[(17.21, 28.79), (8.14, 29.0), (23.19, 8.19), (14.0, 31.0), (29.21, 31.21), (16.71, 29.0), (16.0, 25.0), (2.0, 19.0), (25.0, 3.0), (20.21, 10.21)], [(17.62, 28.38), (8.71, 29.0), (22.79, 7.79), (13.43, 31.0), (29.62, 31.62), (17.29, 29.0), (16.0, 25.57), (2.4, 18.6), (24.6, 3.4), (20.62, 10.62)], [(18.02, 27.98), (9.29, 29.0), (22.38, 7.38), (12.86, 31.0), (30.02, 32.02), (17.86, 29.0), (16.0, 26.14), (2.81, 18.19), (24.19, 3.81), (21.02, 11.02)], [(18.43, 27.57), (9.86, 29.0), (21.98, 6.98), (12.29, 31.0), (30.43, 32.43), (18.43, 29.0), (16.0, 26.71), (3.21, 17.79), (23.79, 4.21), (21.43, 11.43)], [(18.83, 27.17), (10.43, 29.0), (21.57, 6.57), (11.71, 31.0), (30.83, 32.83), (19.0, 29.0), (16.0, 27.29), (3.62, 17.38), (23.38, 4.62), (21.83, 11.83)], [(19.4, 27.17), (11.0, 29.0), (21.17, 6.17), (11.14, 31.0), (30.83, 32.26), (19.4, 28.6), (16.0, 27.86), (4.02, 16.98), (22.98, 5.02), (22.4, 11.83)], [(19.97, 27.17), (11.0, 28.43), (20.77, 5.77), (10.57, 31.0), (30.83, 31.69), (19.81, 28.19), (16.0, 28.43), (4.43, 16.57), (22.57, 5.43), (22.97, 11.83)], [(20.54, 27.17), (11.0, 27.86), (20.36, 5.36), (10.0, 31.0), (30.83, 31.12), (20.21, 27.79), (16.0, 29.0), (4.83, 16.17), (22.17, 5.83), (23.54, 11.83)], [(21.12, 27.17), (11.0, 27.29), (19.96, 4.96), (9.6, 30.6), (30.83, 30.54), (20.62, 27.38), (15.43, 29.0), (5.4, 16.17), (22.17, 6.4), (24.12, 11.83)], [(21.69, 27.17), (11.0, 26.71), (19.55, 4.55), (9.19, 30.19), (30.83, 29.97), (21.02, 26.98), (14.86, 29.0), (5.97, 16.17), (22.17, 6.97), (24.69, 11.83)], [(22.26, 27.17), (11.0, 26.14), (19.15, 4.15), (8.79, 29.79), (30.83, 29.4), (21.43, 26.57), (14.29, 29.0), (6.54, 16.17), (22.17, 7.54), (25.26, 11.83)], [(22.83, 27.17), (11.0, 25.57), (18.74, 3.74), (8.38, 29.38), (30.83, 28.83), (21.83, 26.17), (13.71, 29.0), (7.12, 16.17), (22.17, 8.12), (25.83, 11.83)], [(22.83, 26.6), (11.0, 25.0), (18.34, 3.34), (7.98, 28.98), (30.43, 28.43), (22.4, 26.17), (13.14, 29.0), (7.69, 16.17), (22.17, 8.69), (25.43, 12.23)], [(22.83, 26.03), (10.6, 25.4), (18.34, 3.91), (7.57, 28.57), (30.02, 28.02), (22.97, 26.17), (12.57, 29.0), (8.26, 16.17), (22.17, 9.26), (25.02, 12.64)]]",,0.0,,,1.419
dynamic task,kh15_dt5,27,0,0,0,1,0.7438843768122751,10,"[[(29.21, 16.21), (27.6, 6.6), (7.79, 22.79), (14.14, 2.0), (17.0, 13.71), (19.6, 27.4), (15.0, 18.0), (19.6, 22.6), (8.57, 4.0), (21.4, 11.4)], [(29.62, 16.62), (27.19, 6.19), (7.38, 22.38), (14.71, 2.0), (17.0, 14.29), (19.19, 27.81), (14.43, 18.0), (19.19, 22.19), (9.14, 4.0), (21.81, 11.81)], [(30.02, 17.02), (26.79, 5.79), (6.98, 21.98), (15.29, 2.0), (17.0, 14.86), (18.79, 28.21), (13.86, 18.0), (18.79, 21.79), (9.71, 4.0), (22.21, 12.21)], [(30.43, 17.43), (26.38, 5.38), (6.57, 21.57), (15.86, 2.0), (17.0, 15.43), (18.38, 28.62), (13.29, 18.0), (18.38, 21.38), (10.29, 4.0), (22.62, 12.62)], [(30.83, 17.83), (25.98, 4.98), (6.17, 21.17), (16.43, 2.0), (17.0, 16.0), (17.98, 29.02), (12.71, 18.0), (17.98, 20.98), (10.86, 4.0), (23.02, 13.02)], [(30.83, 18.4), (25.57, 4.57), (6.74, 21.17), (17.0, 2.0), (17.0, 16.57), (17.57, 29.43), (12.14, 18.0), (17.57, 20.57), (11.43, 4.0), (23.43, 13.43)], [(30.83, 18.97), (25.17, 4.17), (7.31, 21.17), (17.4, 2.4), (17.0, 17.14), (17.17, 29.83), (11.57, 18.0), (17.17, 20.17), (12.0, 4.0), (23.83, 13.83)], [(30.83, 19.54), (24.6, 4.17), (7.88, 21.17), (17.81, 2.81), (17.0, 17.71), (17.17, 29.26), (11.0, 18.0), (16.77, 20.57), (12.4, 4.4), (23.83, 13.26)], [(30.83, 20.12), (24.03, 4.17), (8.46, 21.17), (18.21, 3.21), (17.0, 18.29), (17.17, 28.69), (10.6, 17.6), (16.36, 20.98), (12.81, 4.81), (23.83, 12.69)], [(30.83, 20.69), (23.46, 4.17), (9.03, 21.17), (18.62, 3.62), (17.0, 18.86), (17.17, 28.12), (10.19, 17.19), (15.96, 21.38), (13.21, 5.21), (23.83, 12.12)], [(30.83, 21.26), (22.88, 4.17), (9.6, 21.17), (19.02, 4.02), (17.0, 19.43), (17.17, 27.54), (9.79, 16.79), (15.55, 21.79), (13.62, 5.62), (23.83, 11.54)], [(30.83, 21.83), (22.31, 4.17), (10.17, 21.17), (19.43, 4.43), (17.0, 20.0), (17.17, 26.97), (9.38, 16.38), (15.15, 22.19), (14.02, 6.02), (23.83, 10.97)]]",,0.0,,,0.861
dynamic task,kh15_dt5,28,1,0,1,1,0.9225864973732314,10,"[[(6.6, 27.6), (8.0, 16.0), (19.79, 22.21), (3.0, 28.0), (24.0, 17.0), (8.0, 17.57), (28.21, 28.79), (18.43, 18.0), (13.21, 4.79), (11.21, 26.21)], [(6.19, 27.19), (8.57, 16.0), (19.38, 22.62), (3.4, 27.6), (23.6, 17.4), (8.0, 18.14), (28.62, 28.38), (17.86, 18.0), (13.62, 4.38), (11.62, 26.62)], [(5.79, 26.79), (9.14, 16.0), (18.98, 23.02), (3.81, 27.19), (23.19, 17.81), (8.0, 18.71), (29.02, 27.98), (17.29, 18.0), (14.02, 3.98), (12.02, 27.02)], [(5.38, 26.38), (9.71, 16.0), (18.57, 23.43), (4.21, 26.79), (22.79, 18.21), (8.0, 19.29), (29.43, 27.57), (16.71, 18.0), (14.43, 3.57), (12.43, 27.43)], [(4.98, 25.98), (10.29, 16.0), (18.17, 23.83), (4.62, 26.38), (22.38, 18.62), (8.0, 19.86), (29.83, 27.17), (16.14, 18.0), (14.83, 3.17), (12.83, 27.83)], [(4.57, 25.57), (10.86, 16.0), (17.6, 23.83), (5.02, 25.98), (21.98, 19.02), (8.0, 20.43), (30.23, 26.77), (15.57, 18.0), (14.83, 3.74), (12.43, 28.23)], [(4.17, 25.17), (11.43, 16.0), (17.03, 23.83), (5.43, 25.57), (21.57, 19.43), (8.0, 21.0), (30.64, 26.36), (15.0, 18.0), (14.83, 4.31), (12.02, 28.64)], [(4.74, 25.17), (12.0, 16.0), (16.46, 23.83), (5.83, 25.17), (21.17, 19.83), (8.4, 21.4), (31.04, 25.96), (15.0, 17.43), (14.83, 4.88), (11.62, 29.04)], [(5.31, 25.17), (12.4, 15.6), (15.88, 23.83), (5.83, 24.6), (20.6, 19.83), (8.81, 21.81), (31.45, 25.55), (15.0, 16.86), (14.83, 5.46), (11.21, 29.45)], [(5.88, 25.17), (12.81, 15.19), (15.31, 23.83), (5.83, 24.03), (20.03, 19.83), (9.21, 22.21), (31.85, 25.15), (15.0, 16.29), (14.83, 6.03), (10.81, 29.85)], [(6.46, 25.17), (13.21, 14.79), (14.74, 23.83), (5.83, 23.46), (19.46, 19.83), (9.62, 22.62), (32.26, 24.74), (15.0, 15.71), (14.83, 6.6), (10.4, 30.26)], [(7.03, 25.17), (13.62, 14.38), (14.17, 23.83), (5.83, 22.88), (18.88, 19.83), (10.02, 23.02), (32.66, 24.34), (15.0, 15.14), (14.83, 7.17), (10.0, 30.66)], [(7.6, 25.17), (14.02, 13.98), (13.6, 23.83), (5.83, 22.31), (18.31, 19.83), (10.43, 23.43), (32.66, 24.91), (15.0, 14.57), (15.4, 7.17), (9.43, 30.66)], [(8.17, 25.17), (14.43, 13.57), (13.03, 23.83), (5.83, 21.74), (17.74, 19.83), (10.83, 23.83), (32.66, 25.48), (15.0, 14.0), (15.97, 7.17), (8.86, 30.66)], [(8.57, 24.77), (14.83, 13.17), (12.46, 23.83), (5.83, 21.17), (17.17, 19.83), (11.4, 23.83), (32.66, 26.05), (15.4, 14.4), (16.54, 7.17), (8.29, 30.66)], [(8.98, 24.36), (14.43, 12.77), (11.88, 23.83), (5.83, 20.6), (16.77, 20.23), (11.97, 23.83), (32.66, 26.63), (15.81, 14.81), (17.12, 7.17), (7.71, 30.66)]]","[(28.21, 28.79), (28.62, 28.38), (29.02, 27.98), (29.43, 27.57), (29.83, 27.17), (30.23, 26.77), (30.64, 26.36), (31.04, 25.96), (31.45, 25.55), (31.85, 25.15), (32.26, 24.74), (32.66, 24.34), (32.66, 24.91), (32.66, 25.48), (32.66, 26.05), (32.66, 26.63)]",313.04,,,0.392
dynamic task,kh15_dt5,29,0,0,0,1,0.7750005902216799,10,"[[(2.0, 10.71), (10.0, 9.57), (8.79, 18.21), (23.81, 31.19), (4.0, 26.0), (30.4, 10.6), (29.0, 4.0), (30.19, 31.19), (17.0, 27.0), (23.19, 7.19)], [(2.0, 11.29), (10.0, 10.14), (8.38, 18.62), (24.21, 30.79), (4.0, 26.57), (30.81, 10.19), (28.6, 4.4), (29.79, 30.79), (17.4, 26.6), (22.79, 6.79)], [(2.0, 11.86), (10.0, 10.71), (7.98, 19.02), (24.62, 30.38), (4.0, 27.14), (31.21, 9.79), (28.19, 4.81), (29.38, 30.38), (17.81, 26.19), (22.38, 6.38)], [(2.0, 12.43), (10.0, 11.29), (7.57, 19.43), (25.02, 29.98), (4.0, 27.71), (31.62, 9.38), (27.79, 5.21), (28.98, 29.98), (18.21, 25.79), (21.98, 5.98)], [(2.0, 13.0), (10.0, 11.86), (7.17, 19.83), (25.43, 29.57), (4.0, 28.29), (32.02, 8.98), (27.38, 5.62), (28.57, 29.57), (18.62, 25.38), (21.57, 5.57)], [(2.57, 13.0), (10.0, 12.43), (6.77, 19.43), (25.83, 29.17), (4.0, 28.86), (32.43, 8.57), (26.98, 6.02), (28.17, 29.17), (19.02, 24.98), (21.17, 5.17)], [(3.14, 13.0), (10.0, 13.0), (6.36, 19.02), (25.83, 28.6), (4.0, 29.43), (32.83, 8.17), (26.57, 6.43), (27.77, 28.77), (19.43, 24.57), (21.57, 4.77)], [(3.71, 13.0), (10.57, 13.0), (5.96, 18.62), (25.83, 28.03), (4.0, 30.0), (32.43, 7.77), (26.17, 6.83), (27.36, 28.36), (19.83, 24.17), (21.98, 4.36)], [(4.29, 13.0), (11.14, 13.0), (5.55, 18.21), (25.83, 27.46), (4.4, 29.6), (32.02, 7.36), (25.77, 7.23), (26.96, 27.96), (20.23, 24.57), (22.38, 3.96)], [(4.86, 13.0), (11.71, 13.0), (5.15, 17.81), (25.83, 26.88), (4.81, 29.19), (31.62, 6.96), (25.36, 7.64), (26.55, 27.55), (20.64, 24.98), (22.79, 3.55)], [(5.43, 13.0), (12.29, 13.0), (4.74, 17.4), (25.83, 26.31), (5.21, 28.79), (31.21, 6.55), (24.96, 8.04), (26.15, 27.15), (21.04, 25.38), (23.19, 3.15)], [(6.0, 13.0), (12.86, 13.0), (4.34, 17.0), (25.83, 25.74), (5.62, 28.38), (30.81, 6.15), (24.55, 8.45), (25.74, 26.74), (21.45, 25.79), (23.6, 2.74)], [(6.0, 12.43), (13.43, 13.0), (4.74, 16.6), (25.83, 25.17), (6.02, 27.98), (30.4, 5.74), (24.15, 8.85), (25.34, 26.34), (21.85, 26.19), (24.0, 2.34)]]",,0.0,,,0.257
dynamic task,kh15_dt5,30,0,0,0,1,0.8223363855149728,10,"[[(6.21, 4.21), (28.57, 19.0), (15.0, 30.0), (9.4, 3.4), (5.29, 22.0), (30.21, 4.21), (28.21, 7.21), (21.21, 25.21), (20.19, 22.81), (7.6, 3.4)], [(6.62, 4.62), (29.14, 19.0), (14.6, 29.6), (9.81, 3.81), (4.71, 22.0), (30.62, 4.62), (28.62, 7.62), (21.62, 25.62), (19.79, 23.21), (7.19, 3.81)], [(7.02, 5.02), (29.71, 19.0), (14.19, 29.19), (10.21, 4.21), (4.14, 22.0), (31.02, 5.02), (29.02, 8.02), (22.02, 26.02), (19.38, 23.62), (6.79, 4.21)], [(7.43, 5.43), (30.29, 19.0), (13.79, 28.79), (10.62, 4.62), (3.57, 22.0), (31.43, 5.43), (29.43, 8.43), (22.43, 26.43), (18.98, 24.02), (6.38, 4.62)], [(7.83, 5.83), (30.86, 19.0), (13.38, 28.38), (11.02, 5.02), (3.0, 22.0), (31.83, 5.83), (29.83, 8.83), (22.83, 26.83), (18.57, 24.43), (5.98, 5.02)], [(7.43, 6.23), (31.43, 19.0), (12.98, 27.98), (11.43, 5.43), (3.0, 22.57), (31.43, 6.23), (29.83, 9.4), (23.4, 26.83), (18.17, 24.83), (5.57, 5.43)], [(7.02, 6.64), (32.0, 19.0), (12.57, 27.57), (11.83, 5.83), (3.0, 23.14), (31.02, 6.64), (29.83, 9.97), (23.97, 26.83), (18.74, 24.83), (5.17, 5.83)], [(6.62, 7.04), (32.0, 19.57), (12.17, 27.17), (11.43, 6.23), (3.0, 23.71), (30.62, 7.04), (29.83, 10.54), (24.54, 26.83), (19.31, 24.83), (4.77, 6.23)], [(6.21, 7.45), (32.0, 20.14), (11.77, 26.77), (11.02, 6.64), (3.0, 24.29), (30.21, 7.45), (29.83, 11.12), (25.12, 26.83), (19.88, 24.83), (4.36, 6.64)], [(5.81, 7.85), (32.0, 20.71), (11.36, 26.36), (10.62, 7.04), (3.0, 24.86), (29.81, 7.85), (29.83, 11.69), (25.69, 26.83), (20.46, 24.83), (3.96, 7.04)], [(5.4, 8.26), (32.0, 21.29), (10.96, 25.96), (10.21, 7.45), (3.0, 25.43), (29.4, 8.26), (29.83, 12.26), (26.26, 26.83), (21.03, 24.83), (3.55, 7.45)], [(5.0, 8.66), (32.0, 21.86), (10.55, 25.55), (9.81, 7.85), (3.0, 26.0), (29.0, 8.66), (29.83, 12.83), (26.83, 26.83), (21.6, 24.83), (3.15, 7.85)], [(5.0, 8.09), (32.0, 22.43), (10.15, 25.15), (9.4, 8.26), (3.4, 25.6), (28.6, 9.06), (29.83, 13.4), (26.43, 26.43), (22.17, 24.83), (2.74, 8.26)], [(5.0, 7.52), (32.0, 23.0), (9.74, 24.74), (9.0, 8.66), (3.81, 25.19), (28.19, 9.47), (29.83, 13.97), (26.02, 26.02), (22.17, 24.26), (2.34, 8.66)]]",,0.0,,,0.704
dynamic task,kh15_dt5,31,0,0,0,1,0.8218630702294831,10,"[[(2.0, 21.43), (22.43, 11.0), (10.81, 26.19), (12.0, 14.0), (8.19, 2.81), (27.4, 9.6), (18.6, 3.4), (11.0, 30.43), (18.0, 26.0), (8.0, 18.0)], [(2.0, 20.86), (21.86, 11.0), (11.21, 25.79), (12.4, 13.6), (7.79, 3.21), (27.81, 9.19), (18.19, 3.81), (11.0, 29.86), (18.57, 26.0), (8.0, 17.43)], [(2.0, 20.29), (21.29, 11.0), (11.62, 25.38), (12.81, 13.19), (7.38, 3.62), (28.21, 8.79), (17.79, 4.21), (11.0, 29.29), (19.14, 26.0), (8.0, 16.86)], [(2.0, 19.71), (20.71, 11.0), (12.02, 24.98), (13.21, 12.79), (6.98, 4.02), (28.62, 8.38), (17.38, 4.62), (11.0, 28.71), (19.71, 26.0), (8.0, 16.29)], [(2.0, 19.14), (20.14, 11.0), (12.43, 24.57), (13.62, 12.38), (6.57, 4.43), (29.02, 7.98), (16.98, 5.02), (11.0, 28.14), (20.29, 26.0), (8.0, 15.71)], [(2.0, 18.57), (19.57, 11.0), (12.83, 24.17), (14.02, 11.98), (6.17, 4.83), (29.43, 7.57), (16.57, 5.43), (11.0, 27.57), (20.86, 26.0), (8.0, 15.14)], [(2.0, 18.0), (19.0, 11.0), (12.83, 23.6), (14.43, 11.57), (5.77, 5.23), (29.83, 7.17), (16.17, 5.83), (11.0, 27.0), (21.43, 26.0), (8.0, 14.57)], [(2.0, 17.43), (19.4, 11.4), (12.83, 23.03), (14.83, 11.17), (5.36, 5.64), (29.83, 7.74), (15.77, 6.23), (11.0, 26.43), (22.0, 26.0), (8.0, 14.0)], [(2.0, 16.86), (19.81, 11.81), (12.83, 22.46), (14.26, 11.17), (4.96, 6.04), (29.83, 8.31), (15.36, 6.64), (11.0, 25.86), (22.0, 26.57), (8.0, 13.43)], [(2.0, 16.29), (20.21, 12.21), (12.83, 21.88), (13.69, 11.17), (4.55, 6.45), (29.83, 8.88), (14.96, 7.04), (11.0, 25.29), (22.0, 27.14), (8.0, 12.86)], [(2.0, 15.71), (20.62, 12.62), (12.83, 21.31), (13.12, 11.17), (4.15, 6.85), (29.83, 9.46), (14.55, 7.45), (11.0, 24.71), (22.0, 27.71), (8.0, 12.29)], [(2.0, 15.14), (21.02, 13.02), (12.83, 20.74), (12.54, 11.17), (3.74, 7.26), (29.83, 10.03), (14.15, 7.85), (11.0, 24.14), (22.0, 28.29), (8.0, 11.71)], [(2.0, 14.57), (21.43, 13.43), (12.83, 20.17), (11.97, 11.17), (3.34, 7.66), (29.83, 10.6), (13.74, 8.26), (11.0, 23.57), (22.0, 28.86), (8.0, 11.14)], [(2.0, 14.0), (21.83, 13.83), (12.43, 20.57), (11.4, 11.17), (3.34, 7.09), (29.83, 11.17), (13.34, 8.66), (11.0, 23.0), (22.0, 29.43), (8.0, 10.57)]]",,0.0,,,1.13
dynamic task,kh15_dt5,32,0,0,0,1,0.8895312272888987,10,"[[(23.71, 28.0), (5.0, 11.0), (11.6, 12.6), (26.43, 9.0), (19.79, 12.79), (21.21, 13.79), (7.6, 11.6), (19.6, 20.6), (15.0, 24.0), (4.0, 29.29)], [(24.29, 28.0), (5.57, 11.0), (11.19, 12.19), (25.86, 9.0), (19.38, 12.38), (21.62, 13.38), (7.19, 11.19), (19.19, 20.19), (14.43, 24.0), (4.0, 28.71)], [(24.86, 28.0), (6.14, 11.0), (10.79, 11.79), (25.29, 9.0), (18.98, 11.98), (22.02, 12.98), (6.79, 10.79), (18.79, 19.79), (13.86, 24.0), (4.0, 28.14)], [(25.43, 28.0), (6.71, 11.0), (10.38, 11.38), (24.71, 9.0), (18.57, 11.57), (22.43, 12.57), (6.38, 10.38), (18.38, 19.38), (13.29, 24.0), (4.0, 27.57)], [(26.0, 28.0), (7.29, 11.0), (9.98, 10.98), (24.14, 9.0), (18.17, 11.17), (22.83, 12.17), (5.98, 9.98), (17.98, 18.98), (12.71, 24.0), (4.0, 27.0)], [(26.0, 27.43), (7.86, 11.0), (9.57, 10.57), (23.57, 9.0), (18.17, 11.74), (22.83, 11.6), (5.57, 9.57), (17.57, 18.57), (12.14, 24.0), (4.0, 26.43)], [(26.0, 26.86), (8.43, 11.0), (9.17, 10.17), (23.0, 9.0), (18.17, 12.31), (22.83, 11.03), (5.17, 9.17), (17.17, 18.17), (11.57, 24.0), (4.0, 25.86)], [(26.0, 26.29), (9.0, 11.0), (9.17, 10.74), (23.4, 9.4), (18.17, 12.88), (22.83, 10.46), (5.17, 8.6), (17.17, 17.6), (11.0, 24.0), (4.0, 25.29)], [(26.0, 25.71), (9.0, 10.43), (9.17, 11.31), (23.81, 9.81), (18.17, 13.46), (22.83, 9.88), (5.17, 8.03), (17.17, 17.03), (10.6, 24.4), (4.0, 24.71)], [(26.0, 25.14), (9.0, 9.86), (9.17, 11.88), (24.21, 10.21), (18.17, 14.03), (22.83, 9.31), (5.17, 7.46), (17.17, 16.46), (10.19, 24.81), (4.0, 24.14)], [(26.0, 24.57), (9.0, 9.29), (9.17, 12.46), (24.62, 10.62), (18.17, 14.6), (22.83, 8.74), (5.17, 6.88), (17.17, 15.88), (9.79, 25.21), (4.0, 23.57)], [(26.0, 24.0), (9.0, 8.71), (9.17, 13.03), (25.02, 11.02), (18.17, 15.17), (22.83, 8.17), (5.17, 6.31), (17.17, 15.31), (9.38, 25.62), (4.0, 23.0)], [(26.0, 23.43), (9.0, 8.14), (9.17, 13.6), (25.43, 11.43), (17.6, 15.17), (23.23, 7.77), (5.17, 5.74), (17.17, 14.74), (8.98, 26.02), (4.57, 23.0)], [(26.0, 22.86), (9.0, 7.57), (9.17, 14.17), (25.83, 11.83), (17.03, 15.17), (23.64, 7.36), (5.17, 5.17), (17.17, 14.17), (8.57, 26.43), (5.14, 23.0)], [(26.0, 22.29), (9.0, 7.0), (9.17, 14.74), (26.23, 11.43), (16.46, 15.17), (24.04, 6.96), (5.74, 5.17), (16.77, 13.77), (8.17, 26.83), (5.71, 23.0)]]",,0.0,,,1.596
dynamic task,kh15_dt5,33,1,0,1,1,0.7268564042769867,10,"[[(7.57, 3.0), (31.21, 4.79), (7.29, 19.0), (22.0, 9.0), (11.21, 23.79), (24.4, 14.4), (19.0, 10.43), (9.4, 9.4), (28.0, 15.0), (19.0, 4.14)], [(8.14, 3.0), (31.62, 4.38), (6.71, 19.0), (22.0, 8.43), (11.62, 23.38), (24.81, 14.81), (19.0, 9.86), (9.81, 9.81), (27.6, 14.6), (19.0, 4.71)], [(8.71, 3.0), (32.02, 3.98), (6.14, 19.0), (22.0, 7.86), (12.02, 22.98), (25.21, 15.21), (19.0, 9.29), (10.21, 10.21), (27.19, 14.19), (19.0, 5.29)], [(9.29, 3.0), (32.43, 3.57), (5.57, 19.0), (22.0, 7.29), (12.43, 22.57), (25.62, 15.62), (19.0, 8.71), (10.62, 10.62), (26.79, 13.79), (19.0, 5.86)], [(9.86, 3.0), (32.83, 3.17), (5.0, 19.0), (22.0, 6.71), (12.83, 22.17), (26.02, 16.02), (19.0, 8.14), (11.02, 11.02), (26.38, 13.38), (19.0, 6.43)], [(10.43, 3.0), (32.83, 3.74), (5.4, 19.4), (22.0, 6.14), (13.23, 22.57), (26.43, 16.43), (19.0, 7.57), (11.43, 11.43), (25.98, 12.98), (19.0, 7.0)], [(11.0, 3.0), (32.83, 4.31), (5.81, 19.81), (22.0, 5.57), (13.64, 22.98), (26.83, 16.83), (19.0, 7.0), (11.83, 11.83), (25.57, 12.57), (19.4, 7.4)], [(11.0, 3.57), (32.83, 4.88), (6.21, 20.21), (22.0, 5.0), (14.04, 23.38), (27.4, 16.83), (18.6, 7.4), (11.83, 11.26), (25.17, 12.17), (19.81, 7.81)], [(11.0, 4.14), (32.83, 5.46), (6.62, 20.62), (22.4, 4.6), (14.45, 23.79), (27.97, 16.83), (18.19, 7.81), (11.83, 10.69), (25.17, 12.74), (20.21, 8.21)], [(11.0, 4.71), (32.83, 6.03), (7.02, 21.02), (22.81, 4.19), (14.85, 24.19), (28.54, 16.83), (17.79, 8.21), (11.83, 10.12), (25.17, 13.31), (20.62, 8.62)], [(11.0, 5.29), (32.83, 6.6), (7.43, 21.43), (23.21, 3.79), (15.26, 24.6), (29.12, 16.83), (17.38, 8.62), (11.83, 9.54), (25.17, 13.88), (21.02, 9.02)], [(11.0, 5.86), (32.83, 7.17), (7.83, 21.83), (23.62, 3.38), (15.66, 25.0), (29.69, 16.83), (16.98, 9.02), (11.83, 8.97), (25.17, 14.46), (21.43, 9.43)]]","[(11.21, 23.79), (11.62, 23.38), (12.02, 22.98), (12.43, 22.57), (12.83, 22.17), (13.23, 22.57), (13.64, 22.98), (14.04, 23.38), (14.45, 23.79), (14.85, 24.19), (15.26, 24.6), (15.66, 25.0)]",285.76,,,0.532
dynamic task,kh15_dt5,34,0,0,0,1,0.9843274044715145,10,"[[(15.79, 12.79), (31.0, 9.71), (32.0, 17.0), (29.0, 12.57), (27.71, 8.0), (14.0, 25.0), (27.57, 4.0), (28.0, 3.0), (23.6, 24.6), (9.19, 8.19)], [(15.38, 12.38), (31.0, 10.29), (31.6, 16.6), (29.0, 13.14), (28.29, 8.0), (14.0, 24.43), (28.14, 4.0), (28.57, 3.0), (23.19, 24.19), (8.79, 7.79)], [(14.98, 11.98), (31.0, 10.86), (31.19, 16.19), (29.0, 13.71), (28.86, 8.0), (14.0, 23.86), (28.71, 4.0), (29.14, 3.0), (22.79, 23.79), (8.38, 7.38)], [(14.57, 11.57), (31.0, 11.43), (30.79, 15.79), (29.0, 14.29), (29.43, 8.0), (14.0, 23.29), (29.29, 4.0), (29.71, 3.0), (22.38, 23.38), (7.98, 6.98)], [(14.17, 11.17), (31.0, 12.0), (30.38, 15.38), (29.0, 14.86), (30.0, 8.0), (14.0, 22.71), (29.86, 4.0), (30.29, 3.0), (21.98, 22.98), (7.57, 6.57)], [(14.17, 11.74), (30.6, 12.4), (29.98, 14.98), (29.0, 15.43), (30.4, 8.4), (14.0, 22.14), (30.43, 4.0), (30.86, 3.0), (21.57, 22.57), (7.17, 6.17)], [(14.17, 12.31), (30.19, 12.81), (29.57, 14.57), (29.0, 16.0), (30.81, 8.81), (14.0, 21.57), (31.0, 4.0), (31.43, 3.0), (21.17, 22.17), (7.74, 6.17)], [(14.17, 12.88), (29.79, 13.21), (29.17, 14.17), (28.6, 15.6), (31.21, 9.21), (14.0, 21.0), (30.6, 4.4), (32.0, 3.0), (21.74, 22.17), (8.31, 6.17)], [(14.17, 13.46), (29.38, 13.62), (28.6, 14.17), (28.19, 15.19), (31.62, 9.62), (14.57, 21.0), (30.19, 4.81), (32.0, 3.57), (22.31, 22.17), (8.88, 6.17)], [(14.17, 14.03), (28.98, 14.02), (28.03, 14.17), (27.79, 14.79), (32.02, 10.02), (15.14, 21.0), (29.79, 5.21), (32.0, 4.14), (22.88, 22.17), (9.46, 6.17)], [(14.17, 14.6), (28.57, 14.43), (27.46, 14.17), (27.38, 14.38), (32.43, 10.43), (15.71, 21.0), (29.38, 5.62), (32.0, 4.71), (23.46, 22.17), (10.03, 6.17)], [(14.17, 15.17), (28.17, 14.83), (26.88, 14.17), (26.98, 13.98), (32.83, 10.83), (16.29, 21.0), (28.98, 6.02), (32.0, 5.29), (24.03, 22.17), (10.6, 6.17)], [(13.77, 15.57), (27.77, 14.43), (26.31, 14.17), (26.57, 13.57), (32.26, 10.83), (16.86, 21.0), (28.57, 6.43), (32.0, 5.86), (24.6, 22.17), (11.17, 6.17)], [(13.36, 15.98), (27.36, 14.02), (25.74, 14.17), (26.17, 13.17), (31.69, 10.83), (17.43, 21.0), (28.17, 6.83), (32.0, 6.43), (25.17, 22.17), (11.74, 6.17)], [(12.96, 16.38), (26.96, 13.62), (25.17, 14.17), (26.57, 12.77), (31.12, 10.83), (18.0, 21.0), (27.77, 6.43), (32.0, 7.0), (25.74, 22.17), (12.31, 6.17)], [(12.55, 16.79), (26.55, 13.21), (24.77, 14.57), (26.98, 12.36), (30.54, 10.83), (17.6, 20.6), (27.36, 6.02), (31.43, 7.0), (26.31, 22.17), (12.88, 6.17)], [(12.15, 17.19), (26.15, 12.81), (24.36, 14.98), (27.38, 11.96), (29.97, 10.83), (17.19, 20.19), (26.96, 5.62), (30.86, 7.0), (26.88, 22.17), (13.46, 6.17)]]",,0.0,,,2.35
dynamic task,kh15_dt5,35,0,0,0,1,1.1523492111082305,10,"[[(28.14, 5.0), (28.14, 9.0), (11.43, 6.0), (15.29, 15.0), (3.0, 6.0), (28.6, 11.6), (31.0, 27.0), (24.57, 2.0), (31.21, 12.21), (5.0, 30.29)], [(28.71, 5.0), (28.71, 9.0), (10.86, 6.0), (14.71, 15.0), (3.4, 6.4), (28.19, 11.19), (30.43, 27.0), (25.14, 2.0), (31.62, 12.62), (5.0, 29.71)], [(29.29, 5.0), (29.29, 9.0), (10.29, 6.0), (14.14, 15.0), (3.81, 6.81), (27.79, 10.79), (29.86, 27.0), (25.71, 2.0), (32.02, 13.02), (5.0, 29.14)], [(29.86, 5.0), (29.86, 9.0), (9.71, 6.0), (13.57, 15.0), (4.21, 7.21), (27.38, 10.38), (29.29, 27.0), (26.29, 2.0), (32.43, 13.43), (5.0, 28.57)], [(30.43, 5.0), (30.43, 9.0), (9.14, 6.0), (13.0, 15.0), (4.62, 7.62), (26.98, 9.98), (28.71, 27.0), (26.86, 2.0), (32.83, 13.83), (5.0, 28.0)], [(31.0, 5.0), (31.0, 9.0), (8.57, 6.0), (13.4, 15.4), (5.02, 8.02), (26.57, 9.57), (28.14, 27.0), (27.43, 2.0), (32.83, 14.4), (5.4, 27.6)], [(30.6, 5.4), (31.0, 9.57), (8.0, 6.0), (13.81, 15.81), (5.43, 8.43), (26.17, 9.17), (27.57, 27.0), (28.0, 2.0), (32.83, 14.97), (5.81, 27.19)], [(30.19, 5.81), (31.0, 10.14), (7.6, 6.4), (14.21, 16.21), (5.83, 8.83), (26.17, 8.6), (27.0, 27.0), (27.6, 2.4), (32.83, 15.54), (6.21, 26.79)], [(29.79, 6.21), (31.0, 10.71), (7.19, 6.81), (14.62, 16.62), (5.83, 8.26), (26.17, 8.03), (27.0, 26.43), (27.19, 2.81), (32.83, 16.12), (6.62, 26.38)], [(29.38, 6.62), (31.0, 11.29), (6.79, 7.21), (15.02, 17.02), (5.83, 7.69), (26.17, 7.46), (27.0, 25.86), (26.79, 3.21), (32.83, 16.69), (7.02, 25.98)], [(28.98, 7.02), (31.0, 11.86), (6.38, 7.62), (15.43, 17.43), (5.83, 7.12), (26.17, 6.88), (27.0, 25.29), (26.38, 3.62), (32.83, 17.26), (7.43, 25.57)], [(28.57, 7.43), (31.0, 12.43), (5.98, 8.02), (15.83, 17.83), (5.83, 6.54), (26.17, 6.31), (27.0, 24.71), (25.98, 4.02), (32.83, 17.83), (7.83, 25.17)], [(28.17, 7.83), (31.0, 13.0), (5.57, 8.43), (16.4, 17.83), (5.83, 5.97), (26.17, 5.74), (27.0, 24.14), (25.57, 4.43), (32.26, 17.83), (7.26, 25.17)], [(28.74, 7.83), (30.6, 12.6), (5.17, 8.83), (16.97, 17.83), (5.83, 5.4), (26.17, 5.17), (27.0, 23.57), (25.17, 4.83), (31.69, 17.83), (6.69, 25.17)], [(29.31, 7.83), (30.19, 12.19), (4.77, 9.23), (17.54, 17.83), (5.83, 4.83), (26.57, 4.77), (27.0, 23.0), (25.17, 5.4), (31.12, 17.83), (6.12, 25.17)], [(29.88, 7.83), (29.79, 11.79), (4.36, 9.64), (18.12, 17.83), (5.43, 5.23), (26.98, 4.36), (26.6, 22.6), (25.17, 5.97), (30.54, 17.83), (5.54, 25.17)], [(30.46, 7.83), (29.38, 11.38), (3.96, 10.04), (18.69, 17.83), (5.02, 5.64), (27.38, 3.96), (26.19, 22.19), (25.17, 6.54), (29.97, 17.83), (4.97, 25.17)], [(31.03, 7.83), (28.98, 10.98), (3.55, 10.45), (19.26, 17.83), (4.62, 6.04), (27.79, 3.55), (25.79, 21.79), (25.17, 7.12), (29.4, 17.83), (4.4, 25.17)], [(31.6, 7.83), (28.57, 10.57), (3.15, 10.85), (19.83, 17.83), (4.21, 6.45), (28.19, 3.15), (25.38, 21.38), (25.17, 7.69), (28.83, 17.83), (3.83, 25.17)], [(32.17, 7.83), (28.17, 10.17), (2.74, 11.26), (20.23, 17.43), (3.81, 6.85), (28.6, 2.74), (24.98, 20.98), (25.17, 8.26), (28.26, 17.83), (3.83, 24.6)], [(31.77, 8.23), (28.57, 9.77), (2.34, 11.66), (20.64, 17.02), (3.4, 7.26), (29.0, 2.34), (24.57, 20.57), (25.17, 8.83), (27.69, 17.83), (3.83, 24.03)]]",,0.0,,,1.042
dynamic task,kh15_dt5,36,1,0,1,1,1.1519970690860646,10,"[[(10.0, 30.43), (7.71, 23.0), (29.6, 26.6), (23.4, 6.4), (25.0, 7.0), (9.71, 14.0), (22.0, 10.43), (22.0, 5.0), (16.0, 9.86), (7.81, 6.19)], [(10.0, 29.86), (8.29, 23.0), (29.19, 26.19), (23.81, 6.81), (25.4, 6.6), (10.29, 14.0), (22.0, 9.86), (22.0, 5.57), (16.0, 9.29), (8.21, 5.79)], [(10.0, 29.29), (8.86, 23.0), (28.79, 25.79), (24.21, 7.21), (25.81, 6.19), (10.86, 14.0), (22.0, 9.29), (22.0, 6.14), (16.0, 8.71), (8.62, 5.38)], [(10.0, 28.71), (9.43, 23.0), (28.38, 25.38), (24.62, 7.62), (26.21, 5.79), (11.43, 14.0), (22.0, 8.71), (22.0, 6.71), (16.0, 8.14), (9.02, 4.98)], [(10.0, 28.14), (10.0, 23.0), (27.98, 24.98), (25.02, 8.02), (26.62, 5.38), (12.0, 14.0), (22.0, 8.14), (22.0, 7.29), (16.0, 7.57), (9.43, 4.57)], [(10.0, 27.57), (10.0, 22.43), (27.57, 24.57), (25.43, 8.43), (27.02, 4.98), (12.4, 13.6), (22.0, 7.57), (22.0, 7.86), (16.0, 7.0), (9.83, 4.17)], [(10.0, 27.0), (10.0, 21.86), (27.17, 24.17), (25.83, 8.83), (27.43, 4.57), (12.81, 13.19), (22.0, 7.0), (22.0, 8.43), (15.6, 6.6), (10.23, 4.57)], [(9.6, 27.4), (10.0, 21.29), (27.57, 23.77), (25.83, 8.26), (27.83, 4.17), (13.21, 12.79), (21.43, 7.0), (22.0, 9.0), (15.19, 6.19), (10.64, 4.98)], [(9.19, 27.81), (10.0, 20.71), (27.98, 23.36), (25.83, 7.69), (28.23, 4.57), (13.62, 12.38), (20.86, 7.0), (22.4, 9.4), (14.79, 5.79), (11.04, 5.38)], [(8.79, 28.21), (10.0, 20.14), (28.38, 22.96), (25.83, 7.12), (28.64, 4.98), (14.02, 11.98), (20.29, 7.0), (22.81, 9.81), (14.38, 5.38), (11.45, 5.79)], [(8.38, 28.62), (10.0, 19.57), (28.79, 22.55), (25.83, 6.54), (29.04, 5.38), (14.43, 11.57), (19.71, 7.0), (23.21, 10.21), (13.98, 4.98), (11.85, 6.19)], [(7.98, 29.02), (10.0, 19.0), (29.19, 22.15), (25.83, 5.97), (29.45, 5.79), (14.83, 11.17), (19.14, 7.0), (23.62, 10.62), (13.57, 4.57), (12.26, 6.6)], [(7.57, 29.43), (10.4, 18.6), (29.6, 21.74), (25.83, 5.4), (29.85, 6.19), (15.23, 11.57), (18.57, 7.0), (24.02, 11.02), (13.17, 4.17), (12.66, 7.0)], [(7.17, 29.83), (10.81, 18.19), (30.0, 21.34), (25.83, 4.83), (30.26, 6.6), (15.64, 11.98), (18.0, 7.0), (24.43, 11.43), (12.6, 4.17), (12.26, 7.4)], [(7.74, 29.83), (11.21, 17.79), (30.4, 21.74), (26.23, 5.23), (30.66, 7.0), (16.04, 12.38), (18.4, 7.4), (24.83, 11.83), (12.03, 4.17), (11.85, 7.81)], [(8.31, 29.83), (11.62, 17.38), (30.81, 22.15), (26.64, 5.64), (30.26, 7.4), (16.45, 12.79), (18.81, 7.81), (24.83, 11.26), (11.46, 4.17), (11.45, 8.21)], [(8.88, 29.83), (12.02, 16.98), (31.21, 22.55), (27.04, 6.04), (29.85, 7.81), (16.85, 13.19), (19.21, 8.21), (24.83, 10.69), (10.88, 4.17), (11.04, 8.62)], [(9.46, 29.83), (12.43, 16.57), (31.62, 22.96), (27.45, 6.45), (29.45, 8.21), (17.26, 13.6), (19.62, 8.62), (24.83, 10.12), (10.31, 4.17), (10.64, 9.02)], [(10.03, 29.83), (12.83, 16.17), (32.02, 23.36), (27.85, 6.85), (29.04, 8.62), (17.66, 14.0), (20.02, 9.02), (24.83, 9.54), (9.74, 4.17), (10.23, 9.43)], [(10.6, 29.83), (12.83, 15.6), (32.43, 23.77), (28.26, 7.26), (28.64, 9.02), (18.06, 14.4), (20.43, 9.43), (24.83, 8.97), (9.17, 4.17), (9.83, 9.83)], [(11.17, 29.83), (12.83, 15.03), (32.83, 24.17), (28.66, 7.66), (28.23, 9.43), (18.47, 14.81), (20.83, 9.83), (24.83, 8.4), (9.17, 4.74), (9.83, 10.4)]]","[(7.81, 6.19), (8.21, 5.79), (8.62, 5.38), (9.02, 4.98), (9.43, 4.57), (9.83, 4.17), (10.23, 4.57), (10.64, 4.98), (11.04, 5.38), (11.45, 5.79), (11.85, 6.19), (12.26, 6.6), (12.66, 7.0), (12.26, 7.4), (11.85, 7.81), (11.45, 8.21), (11.04, 8.62), (10.64, 9.02), (10.23, 9.43), (9.83, 9.83), (9.83, 10.4)]",337.47,,,1.307
dynamic task,kh15_dt5,37,1,0,1,1,0.9867946741787819,10,"[[(18.0, 25.0), (25.14, 32.0), (18.0, 18.0), (9.0, 25.29), (21.0, 27.0), (20.86, 24.0), (19.0, 12.86), (14.0, 17.0), (9.0, 21.0), (24.57, 2.0)], [(18.4, 25.4), (25.71, 32.0), (17.43, 18.0), (9.0, 24.71), (20.6, 26.6), (20.29, 24.0), (19.0, 12.29), (14.0, 16.43), (8.6, 20.6), (25.14, 2.0)], [(18.81, 25.81), (26.29, 32.0), (16.86, 18.0), (9.0, 24.14), (20.19, 26.19), (19.71, 24.0), (19.0, 11.71), (14.0, 15.86), (8.19, 20.19), (25.71, 2.0)], [(19.21, 26.21), (26.86, 32.0), (16.29, 18.0), (9.0, 23.57), (19.79, 25.79), (19.14, 24.0), (19.0, 11.14), (14.0, 15.29), (7.79, 19.79), (26.29, 2.0)], [(19.62, 26.62), (27.43, 32.0), (15.71, 18.0), (9.0, 23.0), (19.38, 25.38), (18.57, 24.0), (19.0, 10.57), (14.0, 14.71), (7.38, 19.38), (26.86, 2.0)], [(20.02, 27.02), (28.0, 32.0), (15.14, 18.0), (9.57, 23.0), (18.98, 24.98), (18.0, 24.0), (19.0, 10.0), (14.0, 14.14), (6.98, 18.98), (27.43, 2.0)], [(20.43, 27.43), (28.4, 31.6), (14.57, 18.0), (10.14, 23.0), (18.57, 24.57), (18.0, 24.57), (19.4, 9.6), (14.0, 13.57), (6.57, 18.57), (28.0, 2.0)], [(20.83, 27.83), (28.81, 31.19), (14.0, 18.0), (10.71, 23.0), (18.17, 24.17), (18.0, 25.14), (19.81, 9.19), (14.0, 13.0), (6.17, 18.17), (28.0, 2.57)], [(20.83, 27.26), (29.21, 30.79), (13.43, 18.0), (11.29, 23.0), (18.17, 23.6), (18.0, 25.71), (20.21, 8.79), (13.6, 13.4), (6.17, 18.74), (28.0, 3.14)], [(20.83, 26.69), (29.62, 30.38), (12.86, 18.0), (11.86, 23.0), (18.17, 23.03), (18.0, 26.29), (20.62, 8.38), (13.19, 13.81), (6.17, 19.31), (28.0, 3.71)], [(20.83, 26.12), (30.02, 29.98), (12.29, 18.0), (12.43, 23.0), (18.17, 22.46), (18.0, 26.86), (21.02, 7.98), (12.79, 14.21), (6.17, 19.88), (28.0, 4.29)], [(20.83, 25.54), (30.43, 29.57), (11.71, 18.0), (13.0, 23.0), (18.17, 21.88), (18.0, 27.43), (21.43, 7.57), (12.38, 14.62), (6.17, 20.46), (28.0, 4.86)], [(20.83, 24.97), (30.83, 29.17), (11.14, 18.0), (12.6, 22.6), (18.17, 21.31), (18.0, 28.0), (21.83, 7.17), (11.98, 15.02), (6.17, 21.03), (28.0, 5.43)], [(20.83, 24.4), (30.26, 29.17), (10.57, 18.0), (12.19, 22.19), (18.17, 20.74), (17.6, 28.4), (21.43, 6.77), (11.57, 15.43), (6.17, 21.6), (28.0, 6.0)], [(20.83, 23.83), (29.69, 29.17), (10.0, 18.0), (11.79, 21.79), (18.17, 20.17), (17.19, 28.81), (21.02, 6.36), (11.17, 15.83), (6.17, 22.17), (27.6, 5.6)], [(20.83, 23.26), (29.12, 29.17), (10.0, 18.57), (11.38, 21.38), (18.74, 20.17), (16.79, 29.21), (20.62, 5.96), (10.6, 15.83), (6.17, 22.74), (27.19, 5.19)], [(20.83, 22.69), (28.54, 29.17), (10.0, 19.14), (10.98, 20.98), (19.31, 20.17), (16.38, 29.62), (20.21, 5.55), (10.03, 15.83), (6.17, 23.31), (26.79, 4.79)]]","[(24.57, 2.0), (25.14, 2.0), (25.71, 2.0), (26.29, 2.0), (26.86, 2.0), (27.43, 2.0), (28.0, 2.0), (28.0, 2.57), (28.0, 3.14), (28.0, 3.71), (28.0, 4.29), (28.0, 4.86), (28.0, 5.43), (28.0, 6.0), (27.6, 5.6), (27.19, 5.19), (26.79, 4.79)]",310.18,,,0.472
dynamic task,kh15_dt5,38,1,0,1,1,0.7418813201738885,10,"[[(9.81, 30.19), (27.0, 32.0), (16.4, 8.4), (9.4, 14.4), (15.0, 20.0), (27.0, 12.0), (16.81, 14.19), (26.0, 19.29), (32.0, 19.71), (30.0, 28.0)], [(10.21, 29.79), (26.6, 31.6), (16.81, 8.81), (9.81, 14.81), (14.43, 20.0), (27.0, 12.57), (17.21, 13.79), (26.0, 18.71), (32.0, 20.29), (30.0, 28.57)], [(10.62, 29.38), (26.19, 31.19), (17.21, 9.21), (10.21, 15.21), (13.86, 20.0), (27.0, 13.14), (17.62, 13.38), (26.0, 18.14), (32.0, 20.86), (30.0, 29.14)], [(11.02, 28.98), (25.79, 30.79), (17.62, 9.62), (10.62, 15.62), (13.29, 20.0), (27.0, 13.71), (18.02, 12.98), (26.0, 17.57), (32.0, 21.43), (30.0, 29.71)], [(11.43, 28.57), (25.38, 30.38), (18.02, 10.02), (11.02, 16.02), (12.71, 20.0), (27.0, 14.29), (18.43, 12.57), (26.0, 17.0), (32.0, 22.0), (30.0, 30.29)], [(11.83, 28.17), (24.98, 29.98), (18.43, 10.43), (11.43, 16.43), (12.14, 20.0), (27.0, 14.86), (18.83, 12.17), (26.4, 16.6), (31.6, 22.4), (30.0, 30.86)], [(12.23, 27.77), (24.57, 29.57), (18.83, 10.83), (11.83, 16.83), (11.57, 20.0), (27.0, 15.43), (18.83, 11.6), (26.81, 16.19), (31.19, 22.81), (30.0, 31.43)], [(12.64, 27.36), (24.17, 29.17), (18.26, 10.83), (11.26, 16.83), (11.0, 20.0), (27.0, 16.0), (18.83, 11.03), (27.21, 15.79), (30.79, 23.21), (30.0, 32.0)], [(13.04, 26.96), (24.17, 28.6), (17.69, 10.83), (10.69, 16.83), (11.0, 19.43), (26.6, 15.6), (18.83, 10.46), (27.62, 15.38), (30.38, 23.62), (29.6, 31.6)], [(13.45, 26.55), (24.17, 28.03), (17.12, 10.83), (10.12, 16.83), (11.0, 18.86), (26.19, 15.19), (18.83, 9.88), (28.02, 14.98), (29.98, 24.02), (29.19, 31.19)], [(13.85, 26.15), (24.17, 27.46), (16.54, 10.83), (9.54, 16.83), (11.0, 18.29), (25.79, 14.79), (18.83, 9.31), (28.43, 14.57), (29.57, 24.43), (28.79, 30.79)], [(14.26, 25.74), (24.17, 26.88), (15.97, 10.83), (8.97, 16.83), (11.0, 17.71), (25.38, 14.38), (18.83, 8.74), (28.83, 14.17), (29.17, 24.83), (28.38, 30.38)]]","[(27.0, 12.0), (27.0, 12.57), (27.0, 13.14), (27.0, 13.71), (27.0, 14.29), (27.0, 14.86), (27.0, 15.43), (27.0, 16.0), (26.6, 15.6), (26.19, 15.19), (25.79, 14.79), (25.38, 14.38)]",288.39,,,1.666
