trial,ecc_deg_intended,ecc_deg_actual,angle_start_deg,angle_end_deg,orientation_deg,stim_type,x_start_deg,y_start_deg,x_end_deg,y_end_deg,rot_dir,moved_angle_deg,gabor_px,stim_speed_px_s,response,correct,rt,CalibrationDrift(deg)
1,3.0,3.0,167.56,177.56,140,0,-2.93,0.65,-3.0,0.13,ccw,10.0,35.0,100.0,0,1,0.8177,1.029
2,12.0,12.0,217.62,207.62,0,1,-9.51,-7.32,-10.63,-5.56,cw,10.0,35.0,100.0,1,1,0.7488,0.289
3,12.0,12.0,223.73,233.73,0,1,-8.67,-8.3,-7.1,-9.68,ccw,10.0,35.0,100.0,1,1,0.8244,0.132
4,3.0,3.0,204.72,194.72,0,1,-2.73,-1.25,-2.9,-0.76,cw,10.0,35.0,100.0,1,1,0.7847,0.261
5,12.0,12.0,121.74,111.74,140,0,-6.31,10.21,-4.44,11.15,cw,10.0,35.0,100.0,0,1,0.7739,0.127
6,20.0,20.0,82.43,72.43,140,0,2.64,19.83,6.04,19.07,cw,10.0,10.0,100.0,0,1,1.0402,0.209
7,12.0,12.0,142.65,132.65,0,1,-9.54,7.28,-8.13,8.83,cw,10.0,35.0,100.0,1,1,0.7398,0.477
8,3.0,3.0,53.83,43.83,40,0,1.77,2.42,2.16,2.08,cw,10.0,35.0,100.0,0,1,0.8132,0.646
9,6.0,6.0,34.03,24.03,115,0,4.97,3.36,5.48,2.44,cw,10.0,35.0,100.0,0,1,0.774,0.175
10,6.0,6.0,345.33,355.33,40,0,5.8,-1.52,5.98,-0.49,ccw,10.0,35.0,100.0,0,1,0.7923,0.222
11,20.0,20.0,286.64,276.64,115,0,5.73,-19.16,2.31,-19.87,cw,10.0,10.0,100.0,0,1,0.9357,0.211
12,3.0,3.0,336.46,326.46,0,1,2.75,-1.2,2.5,-1.66,cw,10.0,35.0,100.0,1,1,0.737,0.324
13,6.0,6.0,80.0,90.0,0,1,1.04,5.91,-0.0,6.0,ccw,10.0,35.0,100.0,1,1,0.8002,0.41
14,3.0,3.0,237.92,227.92,65,0,-1.59,-2.54,-2.01,-2.23,cw,10.0,35.0,100.0,0,1,0.7627,3.626
15,12.0,12.0,127.85,137.85,0,1,-7.36,9.48,-8.9,8.05,ccw,10.0,35.0,100.0,1,1,0.749,0.402
16,6.0,6.0,318.92,308.92,40,0,4.52,-3.94,3.77,-4.67,cw,10.0,35.0,100.0,0,1,0.7899,0.418
17,20.0,20.0,149.27,139.27,65,0,-17.19,10.22,-15.16,13.05,cw,10.0,35.0,100.0,0,1,0.8209,0.29
18,16.0,16.0,30.99,20.99,115,0,13.72,8.24,14.94,5.73,cw,10.0,35.0,100.0,0,1,0.8204,0.149
19,16.0,16.0,249.87,259.87,115,0,-5.51,-15.02,-2.81,-15.75,ccw,10.0,35.0,100.0,0,1,0.9327,0.131
20,20.0,20.0,348.29,358.29,115,0,19.58,-4.06,19.99,-0.6,ccw,10.0,35.0,100.0,0,1,0.8008,0.208
21,6.0,6.0,54.32,64.32,140,0,3.5,4.87,2.6,5.41,ccw,10.0,35.0,100.0,0,1,0.8401,0.359
22,20.0,20.0,66.12,56.12,0,1,8.1,18.29,11.15,16.6,cw,10.0,10.0,100.0,0,0,0.8964,0.121
23,16.0,16.0,1.88,11.88,0,1,15.99,0.52,15.66,3.29,ccw,10.0,35.0,100.0,1,1,0.8201,0.234
24,20.0,20.0,310.05,320.05,0,1,12.87,-15.31,15.33,-12.84,ccw,10.0,35.0,100.0,1,1,0.9551,0.235
25,12.0,12.0,307.44,297.44,0,1,7.3,-9.53,5.53,-10.65,cw,10.0,35.0,100.0,1,1,0.8672,0.254
26,6.0,6.0,269.29,279.29,115,0,-0.07,-6.0,0.97,-5.92,ccw,10.0,35.0,100.0,0,1,0.7868,0.368
27,3.0,3.0,49.9,59.9,40,0,1.93,2.29,1.5,2.6,ccw,10.0,35.0,100.0,0,1,0.8296,0.294
28,6.0,6.0,197.49,207.49,140,0,-5.72,-1.8,-5.32,-2.77,ccw,10.0,35.0,100.0,0,1,0.8117,0.384
29,3.0,3.0,199.89,209.89,0,1,-2.82,-1.02,-2.6,-1.5,ccw,10.0,35.0,100.0,1,1,0.7869,0.608
30,6.0,6.0,9.08,19.08,0,1,5.92,0.95,5.67,1.96,ccw,10.0,35.0,100.0,1,1,0.7474,0.596
31,12.0,12.0,38.47,48.47,65,0,9.39,7.47,7.96,8.98,ccw,10.0,35.0,100.0,0,1,0.9014,0.203
32,6.0,6.0,132.67,142.67,0,1,-4.07,4.41,-4.77,3.64,ccw,10.0,35.0,100.0,1,1,0.7845,0.442
33,16.0,16.0,287.27,277.27,40,0,4.75,-15.28,2.03,-15.87,cw,10.0,35.0,100.0,0,1,0.8923,0.206
34,20.0,20.0,300.7,290.7,0,1,10.21,-17.2,7.07,-18.71,cw,10.0,10.0,100.0,0,0,0.9986,0.257
35,16.0,16.0,112.51,102.51,40,0,-6.12,14.78,-3.46,15.62,cw,10.0,35.0,100.0,0,1,0.9269,0.271
36,12.0,12.0,27.43,17.43,0,1,10.65,5.53,11.45,3.6,cw,10.0,35.0,100.0,1,1,0.7991,1.326
37,12.0,12.0,210.93,220.93,115,0,-10.29,-6.17,-9.07,-7.86,ccw,10.0,35.0,100.0,0,1,0.8273,0.249
38,16.0,16.0,89.8,79.8,0,1,0.06,16.0,2.83,15.75,cw,10.0,35.0,100.0,1,1,1.0582,0.125
39,12.0,12.0,15.8,5.8,65,0,11.55,3.27,11.94,1.21,cw,10.0,35.0,100.0,0,1,0.8249,0.289
40,3.0,3.0,247.83,257.83,140,0,-1.13,-2.78,-0.63,-2.93,ccw,10.0,35.0,100.0,0,1,0.776,0.246
41,20.0,20.0,296.95,286.95,0,1,9.06,-17.83,5.83,-19.13,cw,10.0,10.0,100.0,0,0,0.9527,0.261
42,20.0,20.0,18.19,8.19,115,0,19.0,6.24,19.8,2.85,cw,10.0,35.0,100.0,0,1,0.8072,0.251
43,16.0,16.0,22.69,32.69,40,0,14.76,6.17,13.47,8.64,ccw,10.0,35.0,100.0,0,1,0.8665,20.425
44,16.0,16.0,215.99,225.99,40,0,-12.95,-9.4,-11.12,-11.51,ccw,10.0,35.0,100.0,0,1,0.7756,0.669
45,12.0,12.0,69.52,59.52,0,1,4.2,11.24,6.09,10.34,cw,10.0,35.0,100.0,1,1,0.8547,0.315
46,3.0,3.0,267.82,257.82,0,1,-0.11,-3.0,-0.63,-2.93,cw,10.0,35.0,100.0,1,1,0.869,9.709
47,20.0,20.0,165.96,155.96,65,0,-19.4,4.85,-18.27,8.15,cw,10.0,35.0,100.0,0,1,0.8415,0.218
48,6.0,6.0,113.07,103.07,40,0,-2.35,5.52,-1.36,5.84,cw,10.0,35.0,100.0,0,1,0.8053,0.282
49,16.0,16.0,255.74,245.74,0,1,-3.94,-15.51,-6.58,-14.59,cw,10.0,35.0,100.0,1,1,0.912,0.164
50,3.0,3.0,98.72,108.72,40,0,-0.45,2.97,-0.96,2.84,ccw,10.0,35.0,100.0,0,1,0.8189,0.288
51,3.0,3.0,75.75,85.75,140,0,0.74,2.91,0.22,2.99,ccw,10.0,35.0,100.0,0,1,0.8565,0.191
52,6.0,6.0,40.21,30.21,0,1,4.58,3.87,5.18,3.02,cw,10.0,35.0,100.0,1,1,0.8467,0.086
53,3.0,3.0,169.13,159.13,0,1,-2.95,0.57,-2.8,1.07,cw,10.0,35.0,100.0,1,1,0.8602,0.189
54,16.0,16.0,282.26,292.26,0,1,3.4,-15.64,6.06,-14.81,ccw,10.0,35.0,100.0,1,1,0.9547,1.762
55,12.0,12.0,199.58,209.58,0,1,-11.31,-4.02,-10.44,-5.92,ccw,10.0,35.0,100.0,1,1,0.8139,0.392
56,12.0,12.0,111.64,101.64,0,1,-4.42,11.15,-2.42,11.75,cw,10.0,35.0,100.0,1,1,0.776,0.089
57,6.0,6.0,231.22,241.22,40,0,-3.76,-4.68,-2.89,-5.26,ccw,10.0,35.0,100.0,0,1,0.8048,0.168
58,20.0,20.0,332.31,322.31,0,1,17.71,-9.29,15.83,-12.23,cw,10.0,35.0,100.0,1,1,0.7686,0.216
59,16.0,16.0,212.52,222.52,0,1,-13.49,-8.6,-11.79,-10.81,ccw,10.0,35.0,100.0,1,1,0.7914,0.066
60,3.0,3.0,235.85,225.85,0,1,-1.68,-2.48,-2.09,-2.15,cw,10.0,35.0,100.0,1,1,0.7829,0.12
61,3.0,3.0,80.47,70.47,0,1,0.5,2.96,1.0,2.83,cw,10.0,35.0,100.0,1,1,0.7414,0.178
62,3.0,3.0,346.49,356.49,140,0,2.92,-0.7,2.99,-0.18,ccw,10.0,35.0,100.0,0,1,0.9169,0.171
63,12.0,12.0,40.91,30.91,65,0,9.07,7.86,10.3,6.16,cw,10.0,35.0,100.0,0,1,0.9728,0.168
64,6.0,6.0,126.68,136.68,40,0,-3.58,4.81,-4.37,4.12,ccw,10.0,35.0,100.0,0,1,0.9317,1.694
65,12.0,12.0,19.1,9.1,140,0,11.34,3.93,11.85,1.9,cw,10.0,35.0,100.0,0,1,0.9122,0.144
66,16.0,16.0,151.28,161.28,40,0,-14.03,7.69,-15.15,5.14,ccw,10.0,35.0,100.0,0,1,0.8658,0.79
67,20.0,20.0,58.17,48.17,0,1,10.55,16.99,13.34,14.9,cw,10.0,10.004,100.0,0,0,0.9173,0.206
68,16.0,16.0,144.73,134.73,0,1,-13.06,9.24,-11.26,11.37,cw,10.0,35.0,100.0,1,1,0.9465,0.31
69,6.0,6.0,232.18,242.18,40,0,-3.68,-4.74,-2.8,-5.31,ccw,10.0,35.0,100.0,0,1,0.779,0.253
70,20.0,20.0,207.03,197.03,40,0,-17.82,-9.09,-19.12,-5.86,cw,10.0,35.0,100.0,0,1,0.881,0.271
71,6.0,6.0,18.8,8.8,0,1,5.68,1.93,5.93,0.92,cw,10.0,35.0,100.0,1,1,0.9748,0.445
72,12.0,12.0,140.56,150.56,140,0,-9.27,7.62,-10.45,5.9,ccw,10.0,35.0,100.0,0,1,0.8369,0.473
73,3.0,3.0,35.12,45.12,65,0,2.45,1.73,2.12,2.13,ccw,10.0,35.0,100.0,0,1,0.761,0.185
74,20.0,20.0,144.06,154.06,115,0,-16.19,11.74,-17.98,8.75,ccw,10.0,35.0,100.0,0,1,0.7904,0.415
75,6.0,6.0,353.1,3.1,0,1,5.96,-0.72,5.99,0.32,ccw,10.0,35.0,100.0,1,1,0.7927,0.312
76,3.0,3.0,186.4,196.4,0,1,-2.98,-0.33,-2.88,-0.85,ccw,10.0,35.0,100.0,1,1,0.7775,0.137
77,16.0,16.0,103.62,93.62,65,0,-3.77,15.55,-1.01,15.97,cw,10.0,35.0,100.0,0,1,0.8777,0.201
78,16.0,16.0,286.56,296.56,0,1,4.56,-15.34,7.15,-14.31,ccw,10.0,35.0,100.0,1,1,0.8395,0.258
79,12.0,12.0,50.5,60.5,140,0,7.63,9.26,5.91,10.44,ccw,10.0,35.0,100.0,0,1,0.7802,0.322
80,12.0,12.0,267.95,257.95,140,0,-0.43,-11.99,-2.51,-11.74,cw,10.0,35.0,100.0,0,1,0.9303,0.191
81,6.0,6.0,309.77,319.77,0,1,3.84,-4.61,4.58,-3.88,ccw,10.0,35.0,100.0,1,1,0.8153,0.168
82,3.0,3.0,207.57,197.57,0,1,-2.66,-1.39,-2.86,-0.91,cw,10.0,35.0,100.0,1,1,0.8132,0.321
83,20.0,20.0,17.13,27.13,0,1,19.11,5.89,17.8,9.12,ccw,10.0,35.0,100.0,1,1,0.9958,0.082
84,20.0,20.0,23.67,13.67,0,1,18.32,8.03,19.43,4.73,cw,10.0,35.0,100.0,1,1,0.7993,0.324
85,3.0,3.0,176.52,186.52,140,0,-2.99,0.18,-2.98,-0.34,ccw,10.0,35.0,100.0,0,1,0.8376,0.246
86,3.0,3.0,166.64,156.64,0,1,-2.92,0.69,-2.75,1.19,cw,10.0,35.0,100.0,1,1,0.7968,0.141
87,3.0,3.0,61.3,51.3,0,1,1.44,2.63,1.88,2.34,cw,10.0,35.0,100.0,1,1,0.8322,0.164
88,3.0,3.0,69.62,59.62,65,0,1.04,2.81,1.52,2.59,cw,10.0,35.0,100.0,0,1,0.8325,0.152
89,16.0,16.0,248.31,258.31,0,1,-5.91,-14.87,-3.24,-15.67,ccw,10.0,35.0,100.0,1,1,0.8059,0.135
90,3.0,3.0,203.64,213.64,0,1,-2.75,-1.2,-2.5,-1.66,ccw,10.0,35.0,100.0,1,1,0.8604,0.224
91,12.0,12.0,299.55,289.55,0,1,5.92,-10.44,4.01,-11.31,cw,10.0,35.0,100.0,1,1,0.8721,0.154
92,16.0,16.0,24.93,14.93,0,1,14.51,6.74,15.46,4.12,cw,10.0,35.0,100.0,1,1,0.8391,0.284
93,20.0,20.0,98.7,88.7,0,1,-3.03,19.77,0.45,19.99,cw,10.0,10.0,100.0,0,0,1.1014,0.124
94,20.0,20.0,285.01,295.01,40,0,5.18,-19.32,8.46,-18.12,ccw,10.0,10.0,100.0,0,1,0.8577,0.229
95,20.0,20.0,340.76,350.76,140,0,18.88,-6.59,19.74,-3.21,ccw,10.0,35.0,100.0,0,1,0.987,0.312
96,20.0,20.0,140.31,150.31,40,0,-15.39,12.77,-17.37,9.91,ccw,10.0,35.0,100.0,0,1,0.8535,0.286
97,16.0,16.0,42.91,52.91,65,0,11.72,10.89,9.65,12.76,ccw,10.0,35.0,100.0,0,1,0.8809,0.491
98,16.0,16.0,212.51,202.51,0,1,-13.49,-8.6,-14.78,-6.12,cw,10.0,35.0,100.0,1,1,0.909,0.676
99,6.0,6.0,141.31,131.31,0,1,-4.68,3.75,-3.96,4.51,cw,10.0,35.0,100.0,1,1,0.8219,0.377
100,6.0,6.0,269.38,259.38,0,1,-0.07,-6.0,-1.11,-5.9,cw,10.0,35.0,100.0,1,1,0.7418,0.305
