trial,ecc_deg_intended,ecc_deg_actual,angle_start_deg,angle_end_deg,orientation_deg,stim_type,x_start_deg,y_start_deg,x_end_deg,y_end_deg,rot_dir,moved_angle_deg,gabor_px,stim_speed_px_s,response,correct,rt,CalibrationDrift(deg)
1,6.0,6.0,124.52,114.52,65,0,-3.4,4.94,-2.49,5.46,cw,10.0,35.0,200.0,0,1,0.7742,4.9
2,3.0,3.0,147.12,137.12,40,0,-2.52,1.63,-2.2,2.04,cw,10.0,35.0,200.0,0,1,0.801,0.84
3,20.0,20.0,260.3,250.3,65,0,-3.37,-19.71,-6.74,-18.83,cw,10.0,10.0,200.0,0,1,0.8536,4.303
4,20.0,20.0,125.29,115.29,0,1,-11.55,16.33,-8.54,18.08,cw,10.0,35.0,200.0,0,0,1.3961,1.302
5,16.0,16.0,262.85,272.85,65,0,-1.99,-15.88,0.8,-15.98,ccw,10.0,35.0,200.0,0,1,0.9713,0.459
6,16.0,16.0,289.65,299.65,65,0,5.38,-15.07,7.91,-13.91,ccw,10.0,35.0,200.0,0,1,1.2147,1.22
7,20.0,20.0,274.89,264.89,140,0,1.7,-19.93,-1.78,-19.92,cw,10.0,10.0,200.0,0,1,1.0445,0.524
8,3.0,3.0,112.16,122.16,0,1,-1.13,2.78,-1.6,2.54,ccw,10.0,35.0,200.0,1,1,0.7436,1.108
9,20.0,20.0,310.92,300.92,40,0,13.1,-15.11,10.28,-17.16,cw,10.0,35.0,200.0,0,1,0.9893,2.749
10,20.0,20.0,316.9,306.9,140,0,14.6,-13.67,12.01,-15.99,cw,10.0,35.0,200.0,0,1,0.9085,1.082
11,16.0,16.0,309.09,319.09,0,1,10.09,-12.42,12.09,-10.48,ccw,10.0,35.0,200.0,1,1,0.8657,19.272
12,3.0,3.0,135.21,145.21,0,1,-2.13,2.11,-2.46,1.71,ccw,10.0,35.0,200.0,1,1,0.7775,0.249
13,3.0,3.0,276.85,286.85,65,0,0.36,-2.98,0.87,-2.87,ccw,10.0,35.0,200.0,0,1,0.7923,0.377
14,16.0,16.0,125.33,135.33,0,1,-9.25,13.05,-11.38,11.25,ccw,10.0,35.0,200.0,1,1,0.8114,0.293
15,3.0,3.0,228.28,218.28,40,0,-2.0,-2.24,-2.35,-1.86,cw,10.0,35.0,200.0,0,1,0.6973,0.445
16,20.0,20.0,246.07,256.07,115,0,-8.11,-18.28,-4.82,-19.41,ccw,10.0,10.0,200.0,0,1,0.9413,1.393
17,20.0,20.0,136.16,126.16,0,1,-14.43,13.85,-11.8,16.15,cw,10.0,35.0,200.0,1,1,0.8712,0.402
18,3.0,3.0,285.12,295.12,0,1,0.78,-2.9,1.27,-2.72,ccw,10.0,35.0,200.0,1,1,0.7306,0.335
19,12.0,12.0,296.46,306.46,140,0,5.35,-10.74,7.13,-9.65,ccw,10.0,35.0,200.0,0,1,0.9087,0.523
20,16.0,16.0,199.24,189.24,0,1,-15.11,-5.27,-15.79,-2.57,cw,10.0,35.0,200.0,1,1,0.7833,0.911
21,6.0,6.0,42.99,32.99,40,0,4.39,4.09,5.03,3.27,cw,10.0,35.0,200.0,0,1,0.7459,0.576
22,20.0,20.0,44.58,34.58,115,0,14.25,14.04,16.47,11.35,cw,10.0,35.0,200.0,0,1,0.8491,0.775
23,12.0,12.0,7.92,17.92,0,1,11.89,1.65,11.42,3.69,ccw,10.0,35.0,200.0,1,1,0.7461,0.607
24,6.0,6.0,83.47,93.47,0,1,0.68,5.96,-0.36,5.99,ccw,10.0,35.0,200.0,1,1,0.6386,0.589
25,12.0,12.0,314.58,304.58,0,1,8.42,-8.55,6.81,-9.88,cw,10.0,35.0,200.0,1,1,0.7192,0.36
26,20.0,20.0,63.95,73.95,0,1,8.78,17.97,5.53,19.22,ccw,10.0,10.0,200.0,0,0,0.9606,0.416
27,16.0,16.0,169.12,159.12,40,0,-15.71,3.02,-14.95,5.7,cw,10.0,35.0,200.0,0,1,0.9575,2.045
28,20.0,20.0,134.8,144.8,0,1,-14.09,14.19,-16.34,11.53,ccw,10.0,35.0,200.0,1,1,0.873,0.282
29,12.0,12.0,191.12,181.12,0,1,-11.77,-2.31,-12.0,-0.24,cw,10.0,35.0,200.0,1,1,0.8238,0.597
30,20.0,20.0,335.67,325.67,0,1,18.22,-8.24,16.52,-11.28,cw,10.0,35.0,200.0,1,1,0.8472,0.447
31,12.0,12.0,171.47,181.47,65,0,-11.87,1.78,-12.0,-0.31,ccw,10.0,35.0,200.0,0,1,0.8496,0.419
32,20.0,20.0,205.11,195.11,65,0,-18.11,-8.49,-19.31,-5.21,cw,10.0,35.0,200.0,0,1,0.9475,0.381
33,6.0,6.0,32.94,42.94,140,0,5.04,3.26,4.39,4.09,ccw,10.0,35.0,200.0,0,1,0.7548,0.496
34,20.0,20.0,317.98,307.98,0,1,14.86,-13.39,12.31,-15.76,cw,10.0,35.0,200.0,1,1,0.8151,0.247
35,20.0,20.0,220.14,210.14,140,0,-15.29,-12.89,-17.3,-10.04,cw,10.0,35.0,200.0,0,1,1.0478,0.645
36,3.0,3.0,38.09,48.09,65,0,2.36,1.85,2.0,2.23,ccw,10.0,35.0,200.0,0,1,0.8352,0.828
37,16.0,16.0,132.37,142.37,40,0,-10.78,11.82,-12.67,9.77,ccw,10.0,35.0,200.0,0,1,0.9872,0.74
38,12.0,12.0,144.42,134.42,0,1,-9.76,6.98,-8.4,8.57,cw,10.0,35.0,200.0,1,1,0.7455,0.46
39,3.0,3.0,334.08,324.08,0,1,2.7,-1.31,2.43,-1.76,cw,10.0,35.0,200.0,1,1,0.7627,0.555
40,16.0,16.0,303.11,293.11,0,1,8.74,-13.4,6.28,-14.72,cw,10.0,35.0,200.0,1,1,0.7804,0.363
41,16.0,16.0,140.25,150.25,0,1,-12.3,10.23,-13.89,7.94,ccw,10.0,35.0,200.0,1,1,0.7876,0.839
42,12.0,12.0,331.63,341.63,140,0,10.56,-5.7,11.39,-3.78,ccw,10.0,35.0,200.0,0,1,0.7471,0.322
43,3.0,3.0,125.61,135.61,0,1,-1.75,2.44,-2.14,2.1,ccw,10.0,35.0,200.0,1,1,0.7641,0.409
44,12.0,12.0,49.02,39.02,40,0,7.87,9.06,9.32,7.56,cw,10.0,35.0,200.0,0,1,0.8572,0.159
45,20.0,20.0,259.54,249.54,140,0,-3.63,-19.67,-6.99,-18.74,cw,10.0,10.0,200.0,0,1,1.1055,0.284
46,20.0,20.0,318.5,328.5,0,1,14.98,-13.25,17.05,-10.45,ccw,10.0,35.0,200.0,1,1,0.7589,0.35
47,6.0,6.0,267.08,257.08,115,0,-0.31,-5.99,-1.34,-5.85,cw,10.0,35.0,200.0,0,1,0.8995,0.377
48,16.0,16.0,176.07,186.07,0,1,-15.96,1.1,-15.91,-1.69,ccw,10.0,35.0,200.0,1,1,0.8692,0.434
49,16.0,16.0,69.53,79.53,140,0,5.6,14.99,2.91,15.73,ccw,10.0,35.0,200.0,0,1,0.7762,0.436
50,3.0,3.0,182.03,192.03,0,1,-3.0,-0.11,-2.93,-0.63,ccw,10.0,35.0,200.0,1,1,0.7934,0.467
51,12.0,12.0,241.95,231.95,40,0,-5.64,-10.59,-7.4,-9.45,cw,10.0,35.0,200.0,0,1,0.8591,0.346
52,3.0,3.0,42.95,52.95,0,1,2.2,2.04,1.81,2.39,ccw,10.0,35.0,200.0,1,1,0.7277,0.174
53,20.0,20.0,322.34,312.34,140,0,15.83,-12.22,13.47,-14.78,cw,10.0,35.0,200.0,0,1,0.7299,0.3
54,6.0,6.0,125.55,135.55,0,1,-3.49,4.88,-4.28,4.2,ccw,10.0,35.0,200.0,1,1,1.1233,0.193
55,12.0,12.0,107.32,97.32,40,0,-3.57,11.46,-1.53,11.9,cw,10.0,35.0,200.0,0,1,0.8191,1.76
56,6.0,6.0,20.96,30.96,0,1,5.6,2.15,5.14,3.09,ccw,10.0,35.0,200.0,1,1,0.7678,2.296
57,20.0,20.0,328.98,318.98,0,1,17.14,-10.31,15.09,-13.13,cw,10.0,35.0,200.0,1,1,0.9177,0.304
58,20.0,20.0,91.04,81.04,65,0,-0.36,20.0,3.12,19.76,cw,10.0,10.0,200.0,0,1,1.0729,0.324
59,3.0,3.0,302.32,292.32,0,1,1.6,-2.54,1.14,-2.78,cw,10.0,35.0,200.0,1,1,0.7584,0.521
60,3.0,3.0,15.98,5.98,65,0,2.88,0.83,2.98,0.31,cw,10.0,35.0,200.0,0,1,0.8157,0.147
61,16.0,16.0,197.86,207.86,0,1,-15.23,-4.91,-14.15,-7.48,ccw,10.0,35.0,200.0,1,1,0.873,0.618
62,20.0,20.0,350.65,0.65,0,1,19.73,-3.25,20.0,0.23,ccw,10.0,35.0,200.0,1,1,0.796,0.345
63,16.0,16.0,281.99,291.99,40,0,3.32,-15.65,5.99,-14.84,ccw,10.0,35.0,200.0,0,1,0.8462,0.258
64,20.0,20.0,6.99,356.99,0,1,19.85,2.43,19.97,-1.05,cw,10.0,35.0,200.0,1,1,0.9088,0.264
65,6.0,6.0,230.77,220.77,115,0,-3.79,-4.65,-4.54,-3.92,cw,10.0,35.0,200.0,0,1,0.9171,0.209
66,16.0,16.0,30.41,20.41,115,0,13.8,8.1,15.0,5.58,cw,10.0,35.0,200.0,0,1,0.8126,0.307
67,3.0,3.0,190.89,180.89,0,1,-2.95,-0.57,-3.0,-0.05,cw,10.0,35.0,200.0,1,1,0.8024,0.436
68,16.0,16.0,96.74,86.74,65,0,-1.88,15.89,0.91,15.97,cw,10.0,35.0,200.0,0,1,0.8727,0.498
69,20.0,20.0,196.03,186.03,40,0,-19.22,-5.52,-19.89,-2.1,cw,10.0,35.0,200.0,0,1,0.8662,1.076
70,20.0,20.0,222.7,232.7,65,0,-14.7,-13.56,-12.12,-15.91,ccw,10.0,35.0,200.0,0,1,0.8449,0.52
71,3.0,3.0,148.97,158.97,140,0,-2.57,1.55,-2.8,1.08,ccw,10.0,35.0,200.0,0,1,1.0641,0.422
72,3.0,3.0,192.2,182.2,40,0,-2.93,-0.63,-3.0,-0.12,cw,10.0,35.0,200.0,0,1,0.7832,0.183
73,3.0,3.0,89.02,99.02,115,0,0.05,3.0,-0.47,2.96,ccw,10.0,35.0,200.0,0,1,0.7997,0.165
74,3.0,3.0,168.46,158.46,0,1,-2.94,0.6,-2.79,1.1,cw,10.0,35.0,200.0,1,1,0.7678,0.248
75,12.0,12.0,125.11,115.11,40,0,-6.9,9.82,-5.09,10.87,cw,10.0,35.0,200.0,0,1,0.8169,0.434
76,3.0,3.0,323.27,313.27,0,1,2.4,-1.79,2.06,-2.18,cw,10.0,35.0,200.0,1,1,0.7288,0.419
77,3.0,3.0,77.69,67.69,140,0,0.64,2.93,1.14,2.78,cw,10.0,35.0,200.0,0,1,0.8807,0.36
78,3.0,3.0,317.05,327.05,0,1,2.2,-2.04,2.52,-1.63,ccw,10.0,35.0,200.0,1,1,0.73,0.085
79,6.0,6.0,124.13,114.13,140,0,-3.37,4.97,-2.45,5.48,cw,10.0,35.0,200.0,0,1,0.8227,0.568
80,12.0,12.0,76.9,66.9,115,0,2.72,11.69,4.71,11.04,cw,10.0,35.0,200.0,0,1,0.9954,0.205
81,20.0,20.0,340.92,350.92,40,0,18.9,-6.54,19.75,-3.16,ccw,10.0,35.0,200.0,0,1,1.0844,0.686
82,12.0,12.0,311.33,321.33,0,1,7.92,-9.01,9.37,-7.5,ccw,10.0,35.0,200.0,1,1,0.8708,0.13
83,3.0,3.0,223.37,213.37,0,1,-2.18,-2.06,-2.51,-1.65,cw,10.0,35.0,200.0,1,1,0.8273,0.181
84,20.0,20.0,175.3,165.3,65,0,-19.93,1.64,-19.35,5.08,cw,10.0,35.0,200.0,0,1,0.8706,0.622
85,3.0,3.0,46.92,36.92,0,1,2.05,2.19,2.4,1.8,cw,10.0,35.0,200.0,1,1,1.4849,0.287
86,20.0,20.0,215.96,225.96,0,1,-16.19,-11.75,-13.9,-14.38,ccw,10.0,35.0,200.0,1,1,1.0152,1.222
87,20.0,20.0,345.47,335.47,140,0,19.36,-5.02,18.2,-8.3,cw,10.0,35.0,200.0,0,1,0.7415,0.86
88,6.0,6.0,348.8,338.8,0,1,5.89,-1.17,5.59,-2.17,cw,10.0,35.0,200.0,1,1,0.7096,0.296
89,20.0,20.0,238.35,248.35,0,1,-10.49,-17.03,-7.38,-18.59,ccw,10.0,10.0,200.0,0,0,1.0358,0.185
90,16.0,16.0,89.65,79.65,0,1,0.1,16.0,2.87,15.74,cw,10.0,35.0,200.0,1,1,1.4052,0.535
91,16.0,16.0,268.77,258.77,0,1,-0.34,-16.0,-3.12,-15.69,cw,10.0,35.0,200.0,1,1,0.8382,0.24
92,6.0,6.0,216.67,206.67,0,1,-4.81,-3.58,-5.36,-2.69,cw,10.0,35.0,200.0,1,1,0.8362,0.081
93,3.0,3.0,234.2,244.2,65,0,-1.75,-2.43,-1.31,-2.7,ccw,10.0,35.0,200.0,0,1,0.9883,6.308
94,6.0,6.0,231.01,241.01,140,0,-3.77,-4.66,-2.91,-5.25,ccw,10.0,35.0,200.0,0,1,0.8332,0.325
95,16.0,16.0,170.96,180.96,65,0,-15.8,2.51,-16.0,-0.27,ccw,10.0,35.0,200.0,0,1,1.0163,0.202
96,6.0,6.0,202.22,192.22,0,1,-5.55,-2.27,-5.86,-1.27,cw,10.0,35.0,200.0,1,1,0.8939,0.156
97,6.0,6.0,176.16,186.16,0,1,-5.99,0.4,-5.97,-0.64,ccw,10.0,35.0,200.0,1,1,0.7515,0.389
98,16.0,16.0,271.64,261.64,0,1,0.46,-15.99,-2.33,-15.83,cw,10.0,35.0,200.0,1,1,0.8125,0.754
99,12.0,12.0,341.32,331.32,0,1,11.37,-3.84,10.53,-5.76,cw,10.0,35.0,200.0,1,1,0.7736,0.32
100,3.0,3.0,278.15,268.15,0,1,0.43,-2.97,-0.1,-3.0,cw,10.0,35.0,200.0,1,1,0.8362,0.305
