trial,ecc_deg_intended,ecc_deg_actual,angle_start_deg,angle_end_deg,orientation_deg,stim_type,x_start_deg,y_start_deg,x_end_deg,y_end_deg,rot_dir,moved_angle_deg,gabor_px,stim_speed_px_s,response,correct,rt,CalibrationDrift(deg)
1,20.0,20.0,323.35,333.35,65,0,16.05,-11.94,17.87,-8.97,ccw,10.0,35.0,400.0,0,1,1.5695,6.453
2,12.0,12.0,138.61,148.61,40,0,-9.0,7.93,-10.24,6.25,ccw,10.0,35.0,400.0,0,1,0.7845,0.238
3,20.0,20.0,118.58,108.58,115,0,-9.57,17.56,-6.37,18.96,cw,10.0,10.0,400.0,0,1,1.0202,0.333
4,20.0,20.0,267.12,277.12,0,1,-1.01,-19.97,2.48,-19.85,ccw,10.0,10.0,400.0,0,0,0.8811,0.431
5,20.0,20.0,118.43,128.43,0,1,-9.52,17.59,-12.43,15.67,ccw,10.0,10.0,400.0,0,0,1.0923,0.444
6,20.0,20.0,224.3,234.3,0,1,-14.31,-13.97,-11.67,-16.24,ccw,10.0,35.0,400.0,0,0,0.9668,0.443
7,16.0,16.0,307.47,317.47,0,1,9.73,-12.7,11.79,-10.81,ccw,10.0,35.0,400.0,1,1,1.4639,0.456
8,12.0,12.0,130.85,120.85,65,0,-7.85,9.08,-6.15,10.3,cw,10.0,35.0,400.0,0,1,0.8566,0.488
9,12.0,12.0,325.72,315.72,0,1,9.92,-6.76,8.59,-8.38,cw,10.0,35.0,400.0,0,0,0.8714,0.414
10,20.0,20.0,58.56,68.56,115,0,10.43,17.06,7.31,18.62,ccw,10.0,10.0,400.0,0,1,1.611,0.476
11,12.0,12.0,209.69,219.69,115,0,-10.42,-5.94,-9.23,-7.66,ccw,10.0,35.0,400.0,0,1,0.7938,0.219
12,12.0,12.0,125.98,115.98,140,0,-7.05,9.71,-5.26,10.79,cw,10.0,35.0,400.0,0,1,0.852,0.393
13,3.0,3.0,333.33,343.33,0,1,2.68,-1.35,2.87,-0.86,ccw,10.0,35.0,400.0,1,1,0.7815,0.586
14,3.0,3.0,125.99,115.99,65,0,-1.76,2.43,-1.31,2.7,cw,10.0,35.0,400.0,0,1,0.8943,0.498
15,20.0,20.0,225.45,215.45,140,0,-14.03,-14.25,-16.29,-11.6,cw,10.0,35.0,400.0,0,1,0.9547,0.62
16,16.0,16.0,298.47,288.47,0,1,7.63,-14.07,5.07,-15.18,cw,10.0,35.0,400.0,1,1,0.8267,0.666
17,20.0,20.0,359.74,349.74,140,0,20.0,-0.09,19.68,-3.56,cw,10.0,35.0,400.0,0,1,1.0356,0.289
18,3.0,3.0,133.89,123.89,0,1,-2.08,2.16,-1.67,2.49,cw,10.0,35.0,400.0,1,1,0.8355,0.508
19,16.0,16.0,233.1,223.1,0,1,-9.61,-12.8,-11.68,-10.93,cw,10.0,35.0,400.0,1,1,1.0861,0.605
20,3.0,3.0,109.12,99.12,65,0,-0.98,2.83,-0.48,2.96,cw,10.0,35.0,400.0,0,1,0.8322,0.527
21,12.0,12.0,36.14,46.14,0,1,9.69,7.08,8.32,8.65,ccw,10.0,35.0,400.0,1,1,0.8188,0.474
22,16.0,16.0,183.03,173.03,0,1,-15.98,-0.85,-15.88,1.94,cw,10.0,35.0,400.0,1,1,0.7797,0.619
23,20.0,20.0,253.96,263.96,0,1,-5.53,-19.22,-2.11,-19.89,ccw,10.0,10.0,400.0,0,0,0.9359,0.412
24,16.0,16.0,267.17,277.17,0,1,-0.79,-15.98,2.0,-15.87,ccw,10.0,35.0,400.0,0,0,1.1326,0.49
25,12.0,12.0,78.93,68.93,140,0,2.3,11.78,4.31,11.2,cw,10.0,35.0,400.0,0,1,0.9633,0.316
26,16.0,16.0,6.07,16.07,140,0,15.91,1.69,15.37,4.43,ccw,10.0,35.0,400.0,0,1,1.0577,0.428
27,16.0,16.0,93.19,103.19,65,0,-0.89,15.98,-3.65,15.58,ccw,10.0,35.0,400.0,0,1,0.9136,0.279
28,20.0,20.0,131.21,141.21,0,1,-13.18,15.05,-15.59,12.53,ccw,10.0,35.0,400.0,1,1,2.1875,0.552
29,20.0,20.0,212.69,222.69,0,1,-16.83,-10.8,-14.7,-13.56,ccw,10.0,35.0,400.0,0,0,0.8632,0.311
30,16.0,16.0,317.53,307.53,0,1,11.8,-10.8,9.75,-12.69,cw,10.0,35.0,400.0,0,0,1.0947,0.306
31,12.0,12.0,135.62,125.62,0,1,-8.58,8.39,-6.99,9.75,cw,10.0,35.0,400.0,1,1,0.93,0.251
32,12.0,12.0,271.19,261.19,115,0,0.25,-12.0,-1.84,-11.86,cw,10.0,35.0,400.0,0,1,0.8482,0.454
33,12.0,12.0,232.71,222.71,40,0,-7.27,-9.55,-8.82,-8.14,cw,10.0,35.0,400.0,0,1,1.421,0.307
34,12.0,12.0,270.43,280.43,115,0,0.09,-12.0,2.17,-11.8,ccw,10.0,35.0,400.0,0,1,0.9213,0.215
35,20.0,20.0,210.4,200.4,40,0,-17.25,-10.12,-18.75,-6.97,cw,10.0,35.0,400.0,0,1,1.6077,0.347
36,16.0,16.0,358.46,348.46,0,1,15.99,-0.43,15.68,-3.2,cw,10.0,35.0,400.0,1,1,0.8114,2.048
37,12.0,12.0,275.83,285.83,0,1,1.22,-11.94,3.27,-11.54,ccw,10.0,35.0,400.0,1,1,0.8173,0.232
38,6.0,6.0,225.92,235.92,0,1,-4.17,-4.31,-3.36,-4.97,ccw,10.0,35.0,400.0,1,1,0.8531,0.286
39,16.0,16.0,317.97,307.97,0,1,11.88,-10.71,9.84,-12.61,cw,10.0,35.0,400.0,1,1,0.9833,0.428
40,20.0,20.0,212.96,202.96,40,0,-16.78,-10.88,-18.42,-7.8,cw,10.0,35.0,400.0,1,0,0.954,0.378
41,6.0,6.0,38.67,48.67,0,1,4.68,3.75,3.96,4.51,ccw,10.0,35.0,400.0,1,1,0.8588,0.375
42,16.0,16.0,203.83,193.83,0,1,-14.64,-6.46,-15.54,-3.82,cw,10.0,35.0,400.0,1,1,0.899,0.555
43,6.0,6.0,265.42,275.42,0,1,-0.48,-5.98,0.57,-5.97,ccw,10.0,35.0,400.0,1,1,0.8024,0.37
44,20.0,20.0,238.76,228.76,0,1,-10.37,-17.1,-13.19,-15.04,cw,10.0,10.0,400.0,0,0,1.1964,0.54
45,12.0,12.0,187.72,177.72,65,0,-11.89,-1.61,-11.99,0.48,cw,10.0,35.0,400.0,0,1,0.8703,0.545
46,12.0,12.0,188.22,198.22,0,1,-11.88,-1.72,-11.4,-3.75,ccw,10.0,35.0,400.0,1,1,0.964,0.489
47,20.0,20.0,175.1,185.1,65,0,-19.93,1.71,-19.92,-1.78,ccw,10.0,35.0,400.0,0,1,1.4486,0.504
48,12.0,12.0,354.51,344.51,115,0,11.94,-1.15,11.56,-3.21,cw,10.0,35.0,400.0,0,1,1.0255,0.631
49,20.0,20.0,216.77,226.77,0,1,-16.02,-11.97,-13.7,-14.57,ccw,10.0,35.0,400.0,1,1,0.8485,0.633
50,12.0,12.0,164.73,154.73,40,0,-11.58,3.16,-10.85,5.12,cw,10.0,35.0,400.0,0,1,0.9681,0.428
51,6.0,6.0,150.09,140.09,0,1,-5.2,2.99,-4.6,3.85,cw,10.0,35.0,400.0,1,1,0.884,0.464
52,20.0,20.0,257.55,247.55,140,0,-4.31,-19.53,-7.64,-18.48,cw,10.0,10.0,400.0,0,1,1.0172,0.434
53,16.0,16.0,275.83,285.83,0,1,1.62,-15.92,4.36,-15.39,ccw,10.0,35.0,400.0,0,0,1.3626,0.802
54,3.0,3.0,192.43,202.43,0,1,-2.93,-0.65,-2.77,-1.14,ccw,10.0,35.0,400.0,1,1,0.8473,0.389
55,12.0,12.0,146.29,156.29,0,1,-9.98,6.66,-10.99,4.83,ccw,10.0,35.0,400.0,1,1,1.0399,0.379
56,6.0,6.0,35.53,45.53,115,0,4.88,3.49,4.2,4.28,ccw,10.0,35.0,400.0,0,1,0.853,0.281
57,20.0,20.0,293.07,303.07,0,1,7.84,-18.4,10.91,-16.76,ccw,10.0,10.0,400.0,0,0,1.0262,0.494
58,6.0,6.0,264.32,274.32,115,0,-0.59,-5.97,0.45,-5.98,ccw,10.0,35.0,400.0,0,1,0.9371,0.622
59,20.0,20.0,94.17,104.17,140,0,-1.46,19.95,-4.9,19.39,ccw,10.0,10.0,400.0,0,1,1.5205,0.871
60,16.0,16.0,119.25,129.25,0,1,-7.82,13.96,-10.12,12.39,ccw,10.0,35.0,400.0,1,1,1.1292,0.444
61,3.0,3.0,3.05,353.05,0,1,3.0,0.16,2.98,-0.36,cw,10.0,35.0,400.0,1,1,0.8771,0.431
62,3.0,3.0,275.29,265.29,0,1,0.28,-2.99,-0.25,-2.99,cw,10.0,35.0,400.0,1,1,0.9212,0.548
63,16.0,16.0,173.19,183.19,65,0,-15.89,1.9,-15.98,-0.89,ccw,10.0,35.0,400.0,0,1,0.938,0.604
64,16.0,16.0,286.76,296.76,40,0,4.61,-15.32,7.2,-14.29,ccw,10.0,35.0,400.0,0,1,1.3283,0.474
65,6.0,6.0,209.44,219.44,65,0,-5.23,-2.95,-4.63,-3.81,ccw,10.0,35.0,400.0,0,1,0.8683,0.579
66,12.0,12.0,52.47,62.47,0,1,7.31,9.52,5.55,10.64,ccw,10.0,35.0,400.0,1,1,1.0743,0.484
67,3.0,3.0,103.19,113.19,0,1,-0.68,2.92,-1.18,2.76,ccw,10.0,35.0,400.0,1,1,1.0244,0.667
68,3.0,3.0,240.91,250.91,40,0,-1.46,-2.62,-0.98,-2.84,ccw,10.0,35.0,400.0,0,1,0.8831,0.608
69,16.0,16.0,319.68,329.68,0,1,12.2,-10.35,13.81,-8.08,ccw,10.0,35.0,400.0,1,1,1.0493,0.847
70,20.0,20.0,234.23,224.23,140,0,-11.69,-16.23,-14.33,-13.95,cw,10.0,35.0,400.0,0,1,1.1027,0.379
71,16.0,16.0,254.12,264.12,0,1,-4.38,-15.39,-1.64,-15.92,ccw,10.0,35.0,400.0,1,1,1.0995,0.418
72,16.0,16.0,260.4,250.4,115,0,-2.67,-15.78,-5.37,-15.07,cw,10.0,35.0,400.0,0,1,1.0399,0.653
73,3.0,3.0,186.75,196.75,65,0,-2.98,-0.35,-2.87,-0.86,ccw,10.0,35.0,400.0,0,1,0.9609,0.552
74,20.0,20.0,76.94,86.94,40,0,4.52,19.48,1.07,19.97,ccw,10.0,10.0,400.0,0,1,1.1513,2.655
75,12.0,12.0,62.32,72.32,0,1,5.58,10.63,3.65,11.43,ccw,10.0,35.0,400.0,1,1,0.9685,0.451
76,3.0,3.0,183.38,173.38,0,1,-2.99,-0.18,-2.98,0.35,cw,10.0,35.0,400.0,1,1,0.7141,0.303
77,12.0,12.0,180.36,170.36,140,0,-12.0,-0.08,-11.83,2.01,cw,10.0,35.0,400.0,0,1,1.3386,0.621
78,3.0,3.0,194.91,184.91,0,1,-2.9,-0.77,-2.99,-0.26,cw,10.0,35.0,400.0,1,1,0.8761,0.564
79,3.0,3.0,289.92,279.92,115,0,1.02,-2.82,0.52,-2.96,cw,10.0,35.0,400.0,0,1,0.923,0.614
80,3.0,3.0,108.32,118.32,0,1,-0.94,2.85,-1.42,2.64,ccw,10.0,35.0,400.0,1,1,1.1276,0.916
81,3.0,3.0,289.18,299.18,115,0,0.99,-2.83,1.46,-2.62,ccw,10.0,35.0,400.0,0,1,0.9988,0.71
82,12.0,12.0,219.4,229.4,115,0,-9.27,-7.62,-7.81,-9.11,ccw,10.0,35.0,400.0,0,1,1.0088,0.896
83,16.0,16.0,221.24,211.24,140,0,-12.03,-10.55,-13.68,-8.3,cw,10.0,35.0,400.0,0,1,0.9639,0.82
84,3.0,3.0,250.66,260.66,0,1,-0.99,-2.83,-0.49,-2.96,ccw,10.0,35.0,400.0,1,1,1.087,0.635
85,3.0,3.0,296.27,306.27,0,1,1.33,-2.69,1.77,-2.42,ccw,10.0,35.0,400.0,1,1,0.9282,0.624
86,6.0,6.0,132.43,142.43,0,1,-4.05,4.43,-4.76,3.66,ccw,10.0,35.0,400.0,1,1,0.915,0.507
87,3.0,3.0,258.63,248.63,140,0,-0.59,-2.94,-1.09,-2.79,cw,10.0,35.0,400.0,0,1,1.0012,0.593
88,6.0,6.0,261.89,271.89,115,0,-0.85,-5.94,0.2,-6.0,ccw,10.0,35.0,400.0,0,1,1.2737,1.124
89,12.0,12.0,61.89,51.89,65,0,5.65,10.58,7.41,9.44,cw,10.0,35.0,400.0,0,1,1.018,0.658
90,12.0,12.0,55.83,45.83,115,0,6.74,9.93,8.36,8.61,cw,10.0,35.0,400.0,0,1,0.8043,0.611
91,3.0,3.0,354.81,4.81,40,0,2.99,-0.27,2.99,0.25,ccw,10.0,35.0,400.0,0,1,1.0157,0.418
92,12.0,12.0,175.03,165.03,115,0,-11.95,1.04,-11.59,3.1,cw,10.0,35.0,400.0,0,1,0.7681,0.473
93,12.0,12.0,175.54,185.54,65,0,-11.96,0.93,-11.94,-1.16,ccw,10.0,35.0,400.0,0,1,0.7617,0.566
94,6.0,6.0,52.99,62.99,0,1,3.61,4.79,2.72,5.35,ccw,10.0,35.0,400.0,1,1,0.9593,0.331
95,12.0,12.0,80.9,70.9,140,0,1.9,11.85,3.93,11.34,cw,10.0,35.0,400.0,0,1,0.8623,0.464
96,16.0,16.0,180.95,170.95,0,1,-16.0,-0.26,-15.8,2.52,cw,10.0,35.0,400.0,1,1,0.9474,0.433
97,20.0,20.0,165.1,155.1,0,1,-19.33,5.14,-18.14,8.42,cw,10.0,35.0,400.0,1,1,0.9614,0.462
98,3.0,3.0,173.66,163.66,40,0,-2.98,0.33,-2.88,0.84,cw,10.0,35.0,400.0,0,1,0.936,0.316
99,12.0,12.0,301.95,311.95,0,1,6.35,-10.18,8.02,-8.93,ccw,10.0,35.0,400.0,1,1,1.1352,0.744
100,16.0,16.0,34.48,44.48,115,0,13.19,9.06,11.42,11.21,ccw,10.0,35.0,400.0,0,1,0.9819,0.432
