trial,ecc_deg_intended,ecc_deg_actual,angle_start_deg,angle_end_deg,orientation_deg,stim_type,x_start_deg,y_start_deg,x_end_deg,y_end_deg,rot_dir,moved_angle_deg,gabor_px,stim_speed_px_s,response,correct,rt,CalibrationDrift(deg)
1,20.0,20.0,305.82,295.82,115,0,11.71,-16.22,8.71,-18.0,cw,10.0,35.0,200.0,0,1,1.9016,2.843
2,6.0,6.0,32.65,42.65,0,1,5.05,3.24,4.41,4.06,ccw,10.0,35.0,200.0,1,1,0.8122,0.778
3,16.0,16.0,195.61,185.61,65,0,-15.41,-4.3,-15.92,-1.56,cw,10.0,35.0,200.0,0,1,0.7535,0.534
4,3.0,3.0,30.24,40.24,65,0,2.59,1.51,2.29,1.94,ccw,10.0,35.0,200.0,0,1,0.7449,0.42
5,12.0,12.0,236.12,226.12,140,0,-6.69,-9.96,-8.32,-8.65,cw,10.0,35.0,200.0,0,1,0.815,0.506
6,3.0,3.0,138.81,128.81,0,1,-2.26,1.98,-1.88,2.34,cw,10.0,35.0,200.0,1,1,0.8625,0.496
7,3.0,3.0,242.8,232.8,0,1,-1.37,-2.67,-1.81,-2.39,cw,10.0,35.0,200.0,1,1,0.9025,0.481
8,16.0,16.0,52.74,42.74,40,0,9.69,12.73,11.75,10.86,cw,10.0,35.0,200.0,0,1,0.9084,0.744
9,16.0,16.0,118.39,128.39,40,0,-7.61,14.08,-9.94,12.54,ccw,10.0,35.0,200.0,0,1,0.8875,0.495
10,6.0,6.0,221.19,231.19,0,1,-4.51,-3.95,-3.76,-4.68,ccw,10.0,35.0,200.0,1,1,0.8217,0.594
11,6.0,6.0,181.23,191.23,0,1,-6.0,-0.13,-5.89,-1.17,ccw,10.0,35.0,200.0,1,1,0.8999,0.911
12,6.0,6.0,131.33,121.33,140,0,-3.96,4.51,-3.12,5.13,cw,10.0,35.0,200.0,0,1,1.0773,0.278
13,12.0,12.0,134.76,124.76,0,1,-8.45,8.52,-6.84,9.86,cw,10.0,35.0,200.0,1,1,1.0131,0.462
14,16.0,16.0,152.97,162.97,0,1,-14.25,7.27,-15.3,4.69,ccw,10.0,35.0,200.0,1,1,1.1036,0.581
15,12.0,12.0,190.67,200.67,0,1,-11.79,-2.22,-11.23,-4.24,ccw,10.0,35.0,200.0,1,1,0.8621,0.412
16,3.0,3.0,135.91,125.91,0,1,-2.15,2.09,-1.76,2.43,cw,10.0,35.0,200.0,1,1,0.7404,0.538
17,3.0,3.0,216.58,226.58,0,1,-2.41,-1.79,-2.06,-2.18,ccw,10.0,35.0,200.0,1,1,0.7914,0.494
18,16.0,16.0,92.78,82.78,0,1,-0.77,15.98,2.01,15.87,cw,10.0,35.0,200.0,1,1,0.8474,0.529
19,12.0,12.0,355.16,345.16,0,1,11.96,-1.01,11.6,-3.07,cw,10.0,35.0,200.0,1,1,0.8099,0.506
20,6.0,6.0,330.17,340.17,0,1,5.21,-2.98,5.64,-2.04,ccw,10.0,35.0,200.0,1,1,0.7538,0.461
21,3.0,3.0,155.81,165.81,65,0,-2.74,1.23,-2.91,0.74,ccw,10.0,35.0,200.0,0,1,0.7375,0.529
22,3.0,3.0,296.16,306.16,115,0,1.32,-2.69,1.77,-2.42,ccw,10.0,35.0,200.0,0,1,0.8883,0.566
23,12.0,12.0,189.23,199.23,0,1,-11.84,-1.92,-11.33,-3.95,ccw,10.0,35.0,200.0,1,1,0.9007,0.638
24,16.0,16.0,285.1,295.1,0,1,4.17,-15.45,6.79,-14.49,ccw,10.0,35.0,200.0,1,1,0.8894,0.753
25,3.0,3.0,334.18,344.18,0,1,2.7,-1.31,2.89,-0.82,ccw,10.0,35.0,200.0,1,1,0.8239,0.836
26,6.0,6.0,280.89,270.89,115,0,1.13,-5.89,0.09,-6.0,cw,10.0,35.0,200.0,0,1,0.94,0.473
27,12.0,12.0,294.35,304.35,115,0,4.95,-10.93,6.77,-9.91,ccw,10.0,35.0,200.0,0,1,0.9185,0.541
28,16.0,16.0,322.92,312.92,0,1,12.77,-9.65,10.9,-11.72,cw,10.0,35.0,200.0,0,0,1.0712,0.692
29,12.0,12.0,104.85,114.85,0,1,-3.08,11.6,-5.04,10.89,ccw,10.0,35.0,200.0,1,1,0.8884,0.636
30,16.0,16.0,17.66,27.66,0,1,15.25,4.85,14.17,7.43,ccw,10.0,35.0,200.0,1,1,1.0906,0.282
31,12.0,12.0,344.93,334.93,65,0,11.59,-3.12,10.87,-5.08,cw,10.0,35.0,200.0,0,1,0.9107,0.217
32,12.0,12.0,168.41,178.41,65,0,-11.76,2.41,-12.0,0.33,ccw,10.0,35.0,200.0,0,1,0.9344,0.389
33,16.0,16.0,337.93,327.93,0,1,14.83,-6.01,13.56,-8.5,cw,10.0,35.0,200.0,1,1,0.8473,0.203
34,6.0,6.0,338.22,328.22,0,1,5.57,-2.23,5.1,-3.16,cw,10.0,35.0,200.0,1,1,0.8465,0.357
35,20.0,20.0,57.93,67.93,140,0,10.62,16.95,7.52,18.53,ccw,10.0,13.796,200.0,0,1,0.8735,0.574
36,20.0,20.0,19.74,29.74,115,0,18.83,6.75,17.37,9.92,ccw,10.0,35.0,200.0,0,1,0.9211,0.213
37,12.0,12.0,119.02,129.02,0,1,-5.82,10.49,-7.56,9.32,ccw,10.0,35.0,200.0,1,1,0.8148,0.282
38,20.0,20.0,301.12,291.12,140,0,10.34,-17.12,7.21,-18.66,cw,10.0,10.0,200.0,0,1,1.202,0.214
39,12.0,12.0,226.92,216.92,65,0,-8.2,-8.76,-9.59,-7.21,cw,10.0,35.0,200.0,0,1,0.8135,0.271
40,16.0,16.0,37.04,47.04,115,0,12.77,9.64,10.9,11.71,ccw,10.0,35.0,200.0,0,1,0.8632,0.296
41,12.0,12.0,6.54,16.54,0,1,11.92,1.37,11.5,3.42,ccw,10.0,35.0,200.0,1,1,0.813,0.443
42,3.0,3.0,201.02,191.02,40,0,-2.8,-1.08,-2.94,-0.57,cw,10.0,35.0,200.0,0,1,0.792,0.509
43,12.0,12.0,197.6,207.6,115,0,-11.44,-3.63,-10.63,-5.56,ccw,10.0,35.0,200.0,0,1,0.7549,0.54
44,12.0,12.0,277.01,267.01,40,0,1.47,-11.91,-0.63,-11.98,cw,10.0,35.0,200.0,0,1,0.8199,0.565
45,3.0,3.0,73.68,83.68,65,0,0.84,2.88,0.33,2.98,ccw,10.0,35.0,200.0,0,1,0.7327,0.229
46,20.0,20.0,258.14,248.14,0,1,-4.11,-19.57,-7.45,-18.56,cw,10.0,10.0,200.0,0,0,0.9312,0.274
47,3.0,3.0,312.57,322.57,0,1,2.03,-2.21,2.38,-1.82,ccw,10.0,35.0,200.0,1,1,0.7929,0.248
48,3.0,3.0,302.59,312.59,115,0,1.62,-2.53,2.03,-2.21,ccw,10.0,35.0,200.0,0,1,0.7343,0.187
49,6.0,6.0,53.05,43.05,115,0,3.61,4.79,4.38,4.1,cw,10.0,35.0,200.0,0,1,0.8083,0.314
50,12.0,12.0,268.23,278.23,115,0,-0.37,-11.99,1.72,-11.88,ccw,10.0,35.0,200.0,0,1,1.0075,0.313
51,12.0,12.0,75.32,85.32,115,0,3.04,11.61,0.98,11.96,ccw,10.0,35.0,200.0,0,1,0.903,0.395
52,20.0,20.0,239.87,229.87,0,1,-10.04,-17.3,-12.89,-15.29,cw,10.0,10.0,200.0,0,0,0.8652,0.545
53,12.0,12.0,340.03,350.03,0,1,11.28,-4.1,11.82,-2.08,ccw,10.0,35.0,200.0,1,1,0.9014,0.368
54,12.0,12.0,258.95,248.95,0,1,-2.3,-11.78,-4.31,-11.2,cw,10.0,35.0,200.0,1,1,0.974,0.588
55,6.0,6.0,229.78,219.78,0,1,-3.87,-4.58,-4.61,-3.84,cw,10.0,35.0,200.0,1,1,0.9316,0.71
56,3.0,3.0,100.0,110.0,115,0,-0.52,2.95,-1.03,2.82,ccw,10.0,35.0,200.0,0,1,0.8503,0.27
57,12.0,12.0,313.89,303.89,40,0,8.32,-8.65,6.69,-9.96,cw,10.0,35.0,200.0,0,1,0.8676,0.342
58,16.0,16.0,352.79,342.79,140,0,15.87,-2.01,15.28,-4.73,cw,10.0,35.0,200.0,0,1,0.9221,0.517
59,12.0,12.0,291.64,281.64,115,0,4.43,-11.15,2.42,-11.75,cw,10.0,35.0,200.0,0,1,0.9856,0.528
60,20.0,20.0,128.05,118.05,0,1,-12.33,15.75,-9.41,17.65,cw,10.0,35.0,200.0,0,0,1.4875,0.407
61,12.0,12.0,86.59,96.59,0,1,0.71,11.98,-1.38,11.92,ccw,10.0,35.0,200.0,1,1,1.2166,0.87
62,3.0,3.0,12.69,22.69,140,0,2.93,0.66,2.77,1.16,ccw,10.0,35.0,200.0,0,1,0.9854,0.113
63,3.0,3.0,311.81,301.81,0,1,2.0,-2.24,1.58,-2.55,cw,10.0,35.0,200.0,1,1,0.8392,0.247
64,6.0,6.0,280.88,290.88,0,1,1.13,-5.89,2.14,-5.61,ccw,10.0,35.0,200.0,1,1,0.8049,0.264
65,12.0,12.0,347.38,337.38,0,1,11.71,-2.62,11.08,-4.62,cw,10.0,35.0,200.0,1,1,0.8371,0.422
66,3.0,3.0,112.62,122.62,115,0,-1.15,2.77,-1.62,2.53,ccw,10.0,35.0,200.0,0,1,0.7949,0.42
67,20.0,20.0,177.77,167.77,140,0,-19.98,0.78,-19.55,4.24,cw,10.0,35.0,200.0,0,1,0.9549,0.357
68,16.0,16.0,271.51,261.51,140,0,0.42,-15.99,-2.36,-15.82,cw,10.0,35.0,200.0,0,1,0.9022,0.443
69,6.0,6.0,279.41,289.41,0,1,0.98,-5.92,1.99,-5.66,ccw,10.0,35.0,200.0,1,1,0.7652,0.356
70,16.0,16.0,185.53,195.53,140,0,-15.93,-1.54,-15.42,-4.28,ccw,10.0,35.0,200.0,0,1,0.8114,0.409
71,6.0,6.0,42.97,32.97,0,1,4.39,4.09,5.03,3.27,cw,10.0,35.0,200.0,1,1,1.0631,0.32
72,3.0,3.0,253.72,263.72,115,0,-0.84,-2.88,-0.33,-2.98,ccw,10.0,35.0,200.0,0,1,0.8843,0.267
73,6.0,6.0,127.75,137.75,0,1,-3.67,4.74,-4.44,4.03,ccw,10.0,35.0,200.0,1,1,0.8269,0.316
74,6.0,6.0,169.69,159.69,65,0,-5.9,1.07,-5.63,2.08,cw,10.0,35.0,200.0,0,1,0.7716,0.426
75,16.0,16.0,149.02,139.02,65,0,-13.72,8.24,-12.08,10.49,cw,10.0,35.0,200.0,0,1,0.8235,0.359
76,12.0,12.0,6.77,16.77,0,1,11.92,1.41,11.49,3.46,ccw,10.0,35.0,200.0,1,1,0.9196,0.483
77,16.0,16.0,268.82,278.82,0,1,-0.33,-16.0,2.45,-15.81,ccw,10.0,35.0,200.0,1,1,0.9239,0.452
78,6.0,6.0,24.37,34.37,0,1,5.47,2.48,4.95,3.39,ccw,10.0,35.0,200.0,1,1,0.9383,0.328
79,12.0,12.0,270.01,260.01,65,0,0.0,-12.0,-2.08,-11.82,cw,10.0,35.0,200.0,0,1,0.8601,0.166
80,12.0,12.0,229.99,219.99,0,1,-7.72,-9.19,-9.19,-7.71,cw,10.0,35.0,200.0,1,1,0.9141,0.302
81,20.0,20.0,63.24,53.24,0,1,9.0,17.86,11.97,16.02,cw,10.0,10.0,200.0,0,0,1.08,0.38
82,20.0,20.0,138.66,148.66,115,0,-15.02,13.21,-17.08,10.4,ccw,10.0,35.0,200.0,0,1,1.2075,0.308
83,6.0,6.0,340.91,350.91,0,1,5.67,-1.96,5.92,-0.95,ccw,10.0,35.0,200.0,1,1,0.8308,0.193
84,12.0,12.0,204.41,214.41,0,1,-10.93,-4.96,-9.9,-6.78,ccw,10.0,35.0,200.0,1,1,0.9609,0.282
85,16.0,16.0,50.68,40.68,0,1,10.14,12.38,12.13,10.43,cw,10.0,35.0,200.0,1,1,1.0173,0.513
86,3.0,3.0,172.82,182.82,0,1,-2.98,0.37,-3.0,-0.15,ccw,10.0,35.0,200.0,1,1,0.9369,0.361
87,6.0,6.0,253.98,243.98,40,0,-1.66,-5.77,-2.63,-5.39,cw,10.0,35.0,200.0,0,1,1.1994,0.234
88,6.0,6.0,300.25,290.25,40,0,3.02,-5.18,2.08,-5.63,cw,10.0,35.0,200.0,0,1,0.7703,0.181
89,16.0,16.0,268.72,258.72,0,1,-0.36,-16.0,-3.13,-15.69,cw,10.0,35.0,200.0,1,1,1.0301,0.259
90,3.0,3.0,133.39,123.39,0,1,-2.06,2.18,-1.65,2.5,cw,10.0,35.0,200.0,1,1,0.9179,0.292
91,16.0,16.0,14.61,4.61,140,0,15.48,4.04,15.95,1.29,cw,10.0,35.0,200.0,0,1,0.8231,0.395
92,6.0,6.0,334.22,344.22,40,0,5.4,-2.61,5.77,-1.63,ccw,10.0,35.0,200.0,0,1,0.9705,0.434
93,20.0,20.0,316.39,306.39,140,0,14.48,-13.8,11.86,-16.1,cw,10.0,35.0,200.0,0,1,1.0157,0.104
94,3.0,3.0,4.19,14.19,65,0,2.99,0.22,2.91,0.74,ccw,10.0,35.0,200.0,0,1,0.8108,0.176
95,16.0,16.0,67.6,77.6,140,0,6.1,14.79,3.43,15.63,ccw,10.0,35.0,200.0,0,1,0.9055,0.553
96,3.0,3.0,47.42,57.42,65,0,2.03,2.21,1.62,2.53,ccw,10.0,35.0,200.0,0,1,0.8168,0.685
97,16.0,16.0,350.89,340.89,140,0,15.8,-2.53,15.12,-5.24,cw,10.0,35.0,200.0,0,1,0.7901,0.72
98,12.0,12.0,1.15,11.15,0,1,12.0,0.24,11.77,2.32,ccw,10.0,35.0,200.0,1,1,1.2846,0.77
99,16.0,16.0,321.82,331.82,65,0,12.58,-9.89,14.1,-7.56,ccw,10.0,35.0,200.0,0,1,0.8293,0.659
100,16.0,16.0,333.05,323.05,0,1,14.26,-7.25,12.79,-9.62,cw,10.0,35.0,200.0,0,0,0.7628,0.514
