trial,ecc_deg_intended,ecc_deg_actual,angle_start_deg,angle_end_deg,orientation_deg,stim_type,x_start_deg,y_start_deg,x_end_deg,y_end_deg,rot_dir,moved_angle_deg,gabor_px,stim_speed_px_s,response,correct,rt,CalibrationDrift(deg)
1,20.0,20.0,281.33,291.33,65,0,3.93,-19.61,7.28,-18.63,ccw,10.0,10.0,300.0,1,0,13.8854,3.901
2,16.0,16.0,8.74,18.74,40,0,15.81,2.43,15.15,5.14,ccw,10.0,35.0,300.0,0,1,1.8942,0.399
3,3.0,3.0,59.96,49.96,140,0,1.5,2.6,1.93,2.3,cw,10.0,35.0,300.0,0,1,1.1234,0.25
4,3.0,3.0,195.28,185.28,0,1,-2.89,-0.79,-2.99,-0.28,cw,10.0,35.0,300.0,1,1,0.8953,0.236
5,3.0,3.0,59.92,69.92,0,1,1.5,2.6,1.03,2.82,ccw,10.0,35.0,300.0,1,1,0.8,1.409
6,12.0,12.0,260.33,250.33,0,1,-2.02,-11.83,-4.04,-11.3,cw,10.0,35.0,300.0,0,0,1.1701,0.695
7,12.0,12.0,17.57,7.57,0,1,11.44,3.62,11.9,1.58,cw,10.0,35.0,300.0,1,1,0.9779,0.836
8,12.0,12.0,30.19,40.19,115,0,10.37,6.03,9.17,7.74,ccw,10.0,35.0,300.0,0,1,0.9647,0.687
9,3.0,3.0,19.44,29.44,0,1,2.83,1.0,2.61,1.47,ccw,10.0,35.0,300.0,1,1,0.9279,0.139
10,20.0,20.0,269.7,259.7,0,1,-0.1,-20.0,-3.58,-19.68,cw,10.0,10.0,300.0,0,0,1.1625,0.753
11,6.0,6.0,40.05,50.05,0,1,4.59,3.86,3.85,4.6,ccw,10.0,35.0,300.0,1,1,0.9254,1.446
12,12.0,12.0,147.96,137.96,40,0,-10.17,6.37,-8.91,8.04,cw,10.0,35.0,300.0,0,1,0.9429,3.913
13,3.0,3.0,93.94,83.94,0,1,-0.21,2.99,0.32,2.98,cw,10.0,35.0,300.0,1,1,0.9823,2.1
14,3.0,3.0,162.72,152.72,0,1,-2.86,0.89,-2.67,1.38,cw,10.0,35.0,300.0,1,1,0.8095,1.687
15,20.0,20.0,71.49,81.49,40,0,6.35,18.97,2.96,19.78,ccw,10.0,10.0,300.0,0,1,1.0517,1.613
16,16.0,16.0,330.65,320.65,115,0,13.95,-7.84,12.37,-10.14,cw,10.0,35.0,300.0,0,1,1.3124,2.685
17,6.0,6.0,80.49,90.49,40,0,0.99,5.92,-0.05,6.0,ccw,10.0,35.0,300.0,0,1,1.167,16.396
18,6.0,6.0,86.63,76.63,0,1,0.35,5.99,1.39,5.84,cw,10.0,35.0,300.0,1,1,0.8843,3.447
19,20.0,20.0,6.85,356.85,0,1,19.86,2.39,19.97,-1.1,cw,10.0,35.0,300.0,1,1,1.0402,5.4
20,16.0,16.0,191.94,201.94,65,0,-15.65,-3.31,-14.84,-5.98,ccw,10.0,35.0,300.0,0,1,0.8678,0.823
21,3.0,3.0,129.87,139.87,65,0,-1.92,2.3,-2.29,1.93,ccw,10.0,35.0,300.0,0,1,0.95,0.469
22,16.0,16.0,11.92,21.92,40,0,15.65,3.3,14.84,5.97,ccw,10.0,35.0,300.0,0,1,1.0186,0.63
23,16.0,16.0,200.66,190.66,140,0,-14.97,-5.64,-15.72,-2.96,cw,10.0,35.0,300.0,0,1,0.8246,0.504
24,3.0,3.0,94.19,84.19,115,0,-0.22,2.99,0.3,2.98,cw,10.0,35.0,300.0,0,1,0.8181,0.43
25,12.0,12.0,160.9,170.9,140,0,-11.34,3.93,-11.85,1.9,ccw,10.0,35.0,300.0,0,1,0.7662,0.36
26,12.0,12.0,70.25,60.25,40,0,4.06,11.29,5.96,10.42,cw,10.0,35.0,300.0,0,1,0.783,0.531
27,20.0,20.0,303.71,313.71,140,0,11.1,-16.64,13.82,-14.46,ccw,10.0,35.0,300.0,0,1,0.8492,0.821
28,16.0,16.0,160.12,150.12,40,0,-15.05,5.44,-13.87,7.97,cw,10.0,35.0,300.0,0,1,0.8602,0.185
29,16.0,16.0,219.59,209.59,0,1,-12.33,-10.2,-13.91,-7.9,cw,10.0,35.0,300.0,1,1,0.8221,0.423
30,20.0,20.0,137.84,127.84,115,0,-14.83,13.42,-12.27,15.79,cw,10.0,35.0,300.0,0,1,1.2191,0.496
31,6.0,6.0,299.89,289.89,0,1,2.99,-5.2,2.04,-5.64,cw,10.0,35.0,300.0,1,1,0.8326,0.623
32,12.0,12.0,11.45,1.45,40,0,11.76,2.38,12.0,0.3,cw,10.0,35.0,300.0,0,1,0.7555,0.305
33,6.0,6.0,39.8,49.8,0,1,4.61,3.84,3.87,4.58,ccw,10.0,35.0,300.0,1,1,0.8006,0.725
34,16.0,16.0,113.22,123.22,65,0,-6.31,14.7,-8.77,13.39,ccw,10.0,35.0,300.0,0,1,0.8388,0.471
35,3.0,3.0,292.07,302.07,65,0,1.13,-2.78,1.59,-2.54,ccw,10.0,35.0,300.0,0,1,0.8411,0.395
36,20.0,20.0,274.02,284.02,0,1,1.4,-19.95,4.85,-19.4,ccw,10.0,10.0,300.0,0,0,1.0993,0.388
37,12.0,12.0,285.04,295.04,0,1,3.11,-11.59,5.08,-10.87,ccw,10.0,35.0,300.0,1,1,1.0607,0.74
38,6.0,6.0,18.76,8.76,0,1,5.68,1.93,5.93,0.91,cw,10.0,35.0,300.0,1,1,0.7965,10.222
39,16.0,16.0,254.1,244.1,65,0,-4.38,-15.39,-6.99,-14.39,cw,10.0,35.0,300.0,0,1,1.026,6.048
40,12.0,12.0,108.63,98.63,0,1,-3.83,11.37,-1.8,11.86,cw,10.0,35.0,300.0,1,1,0.8361,1.337
41,6.0,6.0,37.09,47.09,0,1,4.79,3.62,4.09,4.39,ccw,10.0,35.0,300.0,1,1,0.8196,3.517
42,12.0,12.0,313.0,323.0,0,1,8.18,-8.78,9.58,-7.22,ccw,10.0,35.0,300.0,1,1,0.9374,0.277
43,20.0,20.0,167.01,177.01,0,1,-19.49,4.49,-19.97,1.04,ccw,10.0,35.0,300.0,1,1,1.6363,0.326
44,20.0,20.0,310.52,300.52,0,1,13.0,-15.2,10.16,-17.23,cw,10.0,35.0,300.0,0,0,1.1384,2.044
45,6.0,6.0,171.86,161.86,40,0,-5.94,0.85,-5.7,1.87,cw,10.0,35.0,300.0,0,1,0.9469,0.557
46,12.0,12.0,312.06,322.06,40,0,8.04,-8.91,9.46,-7.38,ccw,10.0,35.0,300.0,0,1,0.8602,4.907
47,12.0,12.0,309.83,319.83,0,1,7.69,-9.21,9.17,-7.74,ccw,10.0,35.0,300.0,1,1,0.8302,12.775
48,6.0,6.0,239.87,229.87,0,1,-3.01,-5.19,-3.87,-4.59,cw,10.0,35.0,300.0,1,1,0.8096,4.775
49,12.0,12.0,343.1,353.1,0,1,11.48,-3.49,11.91,-1.44,ccw,10.0,35.0,300.0,1,1,0.7409,1.145
50,20.0,20.0,31.82,41.82,0,1,16.99,10.55,14.9,13.34,ccw,10.0,35.0,300.0,0,0,1.1585,1.124
51,20.0,20.0,80.75,90.75,115,0,3.21,19.74,-0.26,20.0,ccw,10.0,10.0,300.0,0,1,1.0302,4.422
52,6.0,6.0,124.54,114.54,0,1,-3.4,4.94,-2.49,5.46,cw,10.0,35.0,300.0,1,1,0.7284,1.105
53,12.0,12.0,9.06,19.06,140,0,11.85,1.89,11.34,3.92,ccw,10.0,35.0,300.0,0,1,0.778,3.08
54,3.0,3.0,358.18,8.18,65,0,3.0,-0.1,2.97,0.43,ccw,10.0,35.0,300.0,0,1,1.075,3.662
55,12.0,12.0,145.58,155.58,115,0,-9.9,6.78,-10.93,4.96,ccw,10.0,35.0,300.0,0,1,0.79,2.42
56,20.0,20.0,137.81,127.81,140,0,-14.82,13.43,-12.26,15.8,cw,10.0,35.0,300.0,0,1,0.7033,2.033
57,3.0,3.0,350.83,0.83,0,1,2.96,-0.48,3.0,0.04,ccw,10.0,35.0,300.0,1,1,0.8393,1.963
58,20.0,20.0,116.6,106.6,0,1,-8.95,17.88,-5.71,19.17,cw,10.0,10.0,300.0,0,0,1.338,2.092
59,12.0,12.0,187.26,177.26,0,1,-11.9,-1.52,-11.99,0.57,cw,10.0,35.0,300.0,1,1,0.8006,0.909
60,6.0,6.0,352.56,342.56,0,1,5.95,-0.78,5.72,-1.8,cw,10.0,35.0,300.0,1,1,0.7679,0.908
61,20.0,20.0,0.99,350.99,40,0,20.0,0.35,19.75,-3.13,cw,10.0,35.0,300.0,0,1,0.7491,0.761
62,3.0,3.0,3.34,353.34,140,0,2.99,0.17,2.98,-0.35,cw,10.0,35.0,300.0,1,0,0.7359,0.856
63,20.0,20.0,307.7,317.7,0,1,12.23,-15.83,14.79,-13.46,ccw,10.0,35.0,300.0,1,1,0.8622,0.53
64,20.0,20.0,16.04,6.04,0,1,19.22,5.53,19.89,2.1,cw,10.0,35.0,300.0,1,1,0.7461,0.918
65,16.0,16.0,63.9,73.9,140,0,7.04,14.37,4.44,15.37,ccw,10.0,35.0,300.0,0,1,0.826,0.857
66,6.0,6.0,140.66,150.66,0,1,-4.64,3.8,-5.23,2.94,ccw,10.0,35.0,300.0,1,1,0.7472,0.733
67,3.0,3.0,26.26,36.26,140,0,2.69,1.33,2.42,1.77,ccw,10.0,35.0,300.0,0,1,0.7591,0.885
68,6.0,6.0,226.07,216.07,65,0,-4.16,-4.32,-4.85,-3.53,cw,10.0,35.0,300.0,0,1,0.8893,0.409
69,20.0,20.0,309.67,319.67,0,1,12.77,-15.39,15.25,-12.94,ccw,10.0,35.0,300.0,1,1,0.9052,0.951
70,16.0,16.0,15.64,5.64,40,0,15.41,4.31,15.92,1.57,cw,10.0,35.0,300.0,0,1,0.7859,0.989
71,20.0,20.0,232.0,242.0,0,1,-12.31,-15.76,-9.39,-17.66,ccw,10.0,35.0,300.0,0,0,1.3099,5.511
72,16.0,16.0,299.97,309.97,0,1,7.99,-13.86,10.28,-12.26,ccw,10.0,35.0,300.0,1,1,0.8241,1.569
73,20.0,20.0,280.79,290.79,140,0,3.74,-19.65,7.1,-18.7,ccw,10.0,10.0,300.0,0,1,0.9326,0.671
74,6.0,6.0,15.43,25.43,115,0,5.78,1.6,5.42,2.58,ccw,10.0,35.0,300.0,0,1,0.9779,1.069
75,3.0,3.0,294.97,284.97,40,0,1.27,-2.72,0.77,-2.9,cw,10.0,35.0,300.0,0,1,0.7619,0.799
76,12.0,12.0,55.06,65.06,40,0,6.87,9.84,5.06,10.88,ccw,10.0,35.0,300.0,0,1,0.7429,1.325
77,3.0,3.0,35.95,25.95,115,0,2.43,1.76,2.7,1.31,cw,10.0,35.0,300.0,0,1,0.767,0.85
78,3.0,3.0,223.48,213.48,65,0,-2.18,-2.06,-2.5,-1.65,cw,10.0,35.0,300.0,0,1,0.8326,0.879
79,16.0,16.0,136.63,126.63,0,1,-11.63,10.99,-9.55,12.84,cw,10.0,35.0,300.0,1,1,0.9685,1.077
80,6.0,6.0,252.17,242.17,40,0,-1.84,-5.71,-2.8,-5.31,cw,10.0,35.0,300.0,0,1,0.7567,2.144
81,3.0,3.0,134.22,124.22,0,1,-2.09,2.15,-1.69,2.48,cw,10.0,35.0,300.0,1,1,0.7905,1.146
82,16.0,16.0,346.94,356.94,0,1,15.59,-3.61,15.98,-0.85,ccw,10.0,35.0,300.0,1,1,0.7703,1.002
83,16.0,16.0,308.8,318.8,0,1,10.03,-12.47,12.04,-10.54,ccw,10.0,35.0,300.0,1,1,0.9499,0.567
84,16.0,16.0,55.71,45.71,140,0,9.02,13.22,11.17,11.45,cw,10.0,35.0,300.0,0,1,0.7058,1.666
85,16.0,16.0,96.44,86.44,0,1,-1.79,15.9,0.99,15.97,cw,10.0,35.0,300.0,1,1,0.894,0.893
86,6.0,6.0,254.95,244.95,0,1,-1.56,-5.79,-2.54,-5.44,cw,10.0,35.0,300.0,1,1,0.7961,0.809
87,12.0,12.0,200.8,210.8,140,0,-11.22,-4.26,-10.31,-6.14,ccw,10.0,35.0,300.0,0,1,0.8192,0.474
88,16.0,16.0,168.7,158.7,65,0,-15.69,3.14,-14.91,5.81,cw,10.0,35.0,300.0,0,1,0.8462,0.788
89,12.0,12.0,249.4,259.4,0,1,-4.22,-11.23,-2.21,-11.8,ccw,10.0,35.0,300.0,1,1,0.8612,0.542
90,16.0,16.0,146.84,156.84,0,1,-13.39,8.75,-14.71,6.29,ccw,10.0,35.0,300.0,1,1,0.7845,0.879
91,20.0,20.0,237.26,247.26,115,0,-10.82,-16.82,-7.73,-18.45,ccw,10.0,24.219,300.0,0,1,0.9359,1.075
92,3.0,3.0,246.25,256.25,0,1,-1.21,-2.75,-0.71,-2.91,ccw,10.0,35.0,300.0,1,1,0.7783,2.028
93,6.0,6.0,348.16,358.16,40,0,5.87,-1.23,6.0,-0.19,ccw,10.0,35.0,300.0,0,1,0.814,1.201
94,12.0,12.0,21.27,31.27,0,1,11.18,4.35,10.26,6.23,ccw,10.0,35.0,300.0,1,1,0.7685,0.573
95,20.0,20.0,185.45,175.45,140,0,-19.91,-1.9,-19.94,1.59,cw,10.0,35.0,300.0,0,1,0.8106,0.497
96,6.0,6.0,94.56,84.56,40,0,-0.48,5.98,0.57,5.97,cw,10.0,35.0,300.0,1,0,0.8492,0.725
97,6.0,6.0,24.84,14.84,0,1,5.44,2.52,5.8,1.54,cw,10.0,35.0,300.0,1,1,0.7719,0.794
98,3.0,3.0,78.68,88.68,0,1,0.59,2.94,0.07,3.0,ccw,10.0,35.0,300.0,1,1,0.8613,0.813
99,6.0,6.0,158.25,148.25,40,0,-5.57,2.22,-5.1,3.16,cw,10.0,35.0,300.0,0,1,0.8121,2.318
100,20.0,20.0,187.97,177.97,0,1,-19.81,-2.77,-19.99,0.71,cw,10.0,35.0,300.0,1,1,0.9461,4.304
