trial,ecc_deg_intended,ecc_deg_actual,angle_start_deg,angle_end_deg,orientation_deg,stim_type,x_start_deg,y_start_deg,x_end_deg,y_end_deg,rot_dir,moved_angle_deg,gabor_px,stim_speed_px_s,response,correct,rt,CalibrationDrift(deg)
1,6.0,6.0,295.75,285.75,0,1,2.61,-5.4,1.63,-5.77,cw,10.0,35.0,300.0,1,1,1.4817,5.762
2,16.0,16.0,8.39,18.39,65,0,15.83,2.33,15.18,5.05,ccw,10.0,35.0,300.0,0,1,1.8101,0.951
3,20.0,20.0,266.4,256.4,0,1,-1.25,-19.96,-4.7,-19.44,cw,10.0,10.0,300.0,0,0,2.4698,1.007
4,16.0,16.0,136.76,126.76,0,1,-11.66,10.96,-9.58,12.82,cw,10.0,35.0,300.0,1,1,1.4282,0.453
5,20.0,20.0,14.19,24.19,0,1,19.39,4.9,18.24,8.19,ccw,10.0,35.0,300.0,1,1,1.3888,1.227
6,12.0,12.0,264.84,274.84,0,1,-1.08,-11.95,1.01,-11.96,ccw,10.0,35.0,300.0,1,1,1.3864,0.94
7,20.0,20.0,332.13,342.13,65,0,17.68,-9.35,19.04,-6.14,ccw,10.0,35.0,300.0,0,1,1.3257,1.383
8,12.0,12.0,75.17,85.17,40,0,3.07,11.6,1.01,11.96,ccw,10.0,35.0,300.0,0,1,1.2834,1.037
9,12.0,12.0,9.56,359.56,40,0,11.83,1.99,12.0,-0.09,cw,10.0,35.0,300.0,0,1,1.4071,0.815
10,12.0,12.0,16.53,26.53,0,1,11.5,3.41,10.74,5.36,ccw,10.0,35.0,300.0,1,1,1.3234,0.612
11,20.0,20.0,217.91,207.91,140,0,-15.78,-12.29,-17.67,-9.36,cw,10.0,35.0,300.0,0,1,1.3768,1.253
12,20.0,20.0,117.16,107.16,0,1,-9.13,17.79,-5.9,19.11,cw,10.0,10.0,300.0,0,0,1.98,0.613
13,3.0,3.0,305.14,315.14,65,0,1.73,-2.45,2.13,-2.12,ccw,10.0,35.0,300.0,0,1,1.377,0.531
14,6.0,6.0,206.34,196.34,0,1,-5.38,-2.66,-5.76,-1.69,cw,10.0,35.0,300.0,1,1,1.3867,0.636
15,20.0,20.0,97.08,87.08,40,0,-2.47,19.85,1.02,19.97,cw,10.0,10.0,300.0,0,1,2.3565,0.407
16,6.0,6.0,102.09,112.09,65,0,-1.26,5.87,-2.26,5.56,ccw,10.0,35.0,300.0,0,1,1.367,1.146
17,12.0,12.0,179.68,169.68,0,1,-12.0,0.07,-11.81,2.15,cw,10.0,35.0,300.0,1,1,1.3138,0.284
18,12.0,12.0,295.78,285.78,40,0,5.22,-10.81,3.26,-11.55,cw,10.0,35.0,300.0,0,1,1.5122,0.254
19,16.0,16.0,61.47,71.47,140,0,7.64,14.06,5.09,15.17,ccw,10.0,35.0,300.0,0,1,1.7999,0.211
20,3.0,3.0,112.67,102.67,0,1,-1.16,2.77,-0.66,2.93,cw,10.0,35.0,300.0,1,1,1.1827,0.84
21,16.0,16.0,329.44,339.44,40,0,13.78,-8.13,14.98,-5.62,ccw,10.0,35.0,300.0,0,1,1.3315,0.545
22,12.0,12.0,61.42,51.42,0,1,5.74,10.54,7.48,9.38,cw,10.0,35.0,300.0,1,1,1.3136,0.513
23,6.0,6.0,160.14,170.14,0,1,-5.64,2.04,-5.91,1.03,ccw,10.0,35.0,300.0,1,1,1.2598,0.505
24,12.0,12.0,313.87,303.87,0,1,8.32,-8.65,6.69,-9.96,cw,10.0,35.0,300.0,1,1,1.1667,0.475
25,6.0,6.0,172.9,162.9,0,1,-5.95,0.74,-5.73,1.76,cw,10.0,35.0,300.0,1,1,1.1523,0.772
26,16.0,16.0,200.84,210.84,140,0,-14.95,-5.69,-13.74,-8.2,ccw,10.0,35.0,300.0,0,1,1.1577,0.844
27,20.0,20.0,112.53,102.53,140,0,-7.66,18.47,-4.34,19.52,cw,10.0,10.0,300.0,0,1,1.821,0.534
28,20.0,20.0,119.14,109.14,0,1,-9.74,17.47,-6.56,18.89,cw,10.0,10.0,300.0,1,1,1.7858,0.362
29,3.0,3.0,135.6,145.6,65,0,-2.14,2.1,-2.48,1.7,ccw,10.0,35.0,300.0,0,1,1.3989,0.812
30,6.0,6.0,89.42,79.42,140,0,0.06,6.0,1.1,5.9,cw,10.0,35.0,300.0,0,1,1.3769,0.518
31,6.0,6.0,250.53,240.53,0,1,-2.0,-5.66,-2.95,-5.22,cw,10.0,35.0,300.0,1,1,1.4385,0.624
32,12.0,12.0,191.08,201.08,0,1,-11.78,-2.31,-11.2,-4.32,ccw,10.0,35.0,300.0,1,1,1.2216,0.553
33,20.0,20.0,14.11,24.11,140,0,19.4,4.88,18.25,8.17,ccw,10.0,35.0,300.0,0,1,1.385,0.655
34,20.0,20.0,67.52,57.52,65,0,7.65,18.48,10.74,16.87,cw,10.0,10.0,300.0,0,1,1.8514,0.759
35,12.0,12.0,309.87,299.87,140,0,7.69,-9.21,5.98,-10.41,cw,10.0,35.0,300.0,0,1,1.2282,0.582
36,16.0,16.0,324.27,334.27,0,1,12.99,-9.34,14.41,-6.95,ccw,10.0,35.0,300.0,1,1,1.137,0.485
37,20.0,20.0,273.82,263.82,0,1,1.33,-19.96,-2.15,-19.88,cw,10.0,10.0,300.0,0,0,1.9575,1.02
38,6.0,6.0,310.15,300.15,65,0,3.87,-4.59,3.01,-5.19,cw,10.0,35.0,300.0,0,1,1.2573,0.718
39,16.0,16.0,34.5,44.5,40,0,13.19,9.06,11.41,11.21,ccw,10.0,35.0,300.0,0,1,2.2286,0.675
40,12.0,12.0,178.35,188.35,140,0,-12.0,0.35,-11.87,-1.74,ccw,10.0,35.0,300.0,0,1,1.2207,0.497
41,3.0,3.0,283.54,293.54,115,0,0.7,-2.92,1.2,-2.75,ccw,10.0,35.0,300.0,0,1,1.2023,0.924
42,16.0,16.0,319.28,329.28,0,1,12.13,-10.44,13.75,-8.17,ccw,10.0,35.0,300.0,1,1,1.212,0.393
43,6.0,6.0,293.45,303.45,140,0,2.39,-5.5,3.31,-5.01,ccw,10.0,35.0,300.0,0,1,1.2798,0.317
44,20.0,20.0,35.82,25.82,115,0,16.22,11.71,18.0,8.71,cw,10.0,35.0,300.0,0,1,1.1397,0.377
45,20.0,20.0,181.2,191.2,0,1,-20.0,-0.42,-19.62,-3.88,ccw,10.0,35.0,300.0,1,1,1.527,0.61
46,20.0,20.0,246.92,256.92,0,1,-7.84,-18.4,-4.53,-19.48,ccw,10.0,10.0,300.0,0,0,2.09,1.379
47,12.0,12.0,201.84,191.84,0,1,-11.14,-4.46,-11.74,-2.46,cw,10.0,35.0,300.0,1,1,1.2211,1.071
48,6.0,6.0,270.61,280.61,0,1,0.06,-6.0,1.11,-5.9,ccw,10.0,35.0,300.0,1,1,1.192,0.561
49,3.0,3.0,195.47,205.47,0,1,-2.89,-0.8,-2.71,-1.29,ccw,10.0,35.0,300.0,1,1,1.1538,0.779
50,6.0,6.0,46.34,36.34,115,0,4.14,4.34,4.83,3.56,cw,10.0,35.0,300.0,0,1,1.2591,0.584
51,20.0,20.0,249.34,239.34,0,1,-7.06,-18.71,-10.2,-17.2,cw,10.0,10.0,300.0,0,0,1.7495,0.923
52,20.0,20.0,263.12,253.12,0,1,-2.4,-19.86,-5.81,-19.14,cw,10.0,10.0,300.0,0,0,1.9058,0.551
53,6.0,6.0,109.26,119.26,0,1,-1.98,5.66,-2.93,5.23,ccw,10.0,35.0,300.0,1,1,1.1734,0.557
54,12.0,12.0,29.97,19.97,40,0,10.4,5.99,11.28,4.1,cw,10.0,35.0,300.0,0,1,1.3427,1.063
55,20.0,20.0,199.49,189.49,0,1,-18.85,-6.67,-19.73,-3.3,cw,10.0,35.0,300.0,1,1,1.2244,0.825
56,3.0,3.0,112.93,122.93,40,0,-1.17,2.76,-1.63,2.52,ccw,10.0,35.0,300.0,0,1,1.2118,0.723
57,12.0,12.0,248.74,238.74,40,0,-4.35,-11.18,-6.23,-10.26,cw,10.0,35.0,300.0,0,1,1.1471,0.999
58,20.0,20.0,358.6,8.6,0,1,19.99,-0.49,19.78,2.99,ccw,10.0,35.0,300.0,1,1,1.2822,0.499
59,6.0,6.0,192.58,202.58,65,0,-5.86,-1.31,-5.54,-2.3,ccw,10.0,35.0,300.0,0,1,1.283,0.302
60,12.0,12.0,17.24,7.24,0,1,11.46,3.56,11.9,1.51,cw,10.0,35.0,300.0,1,1,1.0784,0.711
61,3.0,3.0,133.17,143.17,0,1,-2.05,2.19,-2.4,1.8,ccw,10.0,35.0,300.0,1,1,1.8839,0.482
62,6.0,6.0,184.01,174.01,140,0,-5.99,-0.42,-5.97,0.63,cw,10.0,35.0,300.0,0,1,1.2347,0.74
63,6.0,6.0,351.41,341.41,0,1,5.93,-0.9,5.69,-1.91,cw,10.0,35.0,300.0,1,1,1.2629,0.811
64,6.0,6.0,259.95,249.95,115,0,-1.05,-5.91,-2.06,-5.64,cw,10.0,35.0,300.0,0,1,1.2003,0.614
65,3.0,3.0,242.37,252.37,0,1,-1.39,-2.66,-0.91,-2.86,ccw,10.0,35.0,300.0,1,1,1.0584,0.497
66,20.0,20.0,202.35,212.35,140,0,-18.5,-7.6,-16.9,-10.7,ccw,10.0,35.0,300.0,0,1,1.3747,0.195
67,12.0,12.0,249.58,259.58,65,0,-4.19,-11.25,-2.17,-11.8,ccw,10.0,35.0,300.0,0,1,1.3494,0.613
68,16.0,16.0,335.97,345.97,140,0,14.61,-6.52,15.52,-3.88,ccw,10.0,35.0,300.0,0,1,1.1721,0.458
69,12.0,12.0,233.52,223.52,0,1,-7.13,-9.65,-8.7,-8.26,cw,10.0,35.0,300.0,1,1,1.2379,0.6
70,12.0,12.0,241.01,231.01,0,1,-5.82,-10.5,-7.55,-9.33,cw,10.0,35.0,300.0,1,1,1.4584,0.809
71,16.0,16.0,336.73,326.73,65,0,14.7,-6.32,13.38,-8.78,cw,10.0,35.0,300.0,0,1,1.2686,0.577
72,3.0,3.0,77.29,67.29,65,0,0.66,2.93,1.16,2.77,cw,10.0,35.0,300.0,0,1,1.1178,0.93
73,6.0,6.0,294.12,304.12,0,1,2.45,-5.48,3.37,-4.97,ccw,10.0,35.0,300.0,1,1,1.1308,0.759
74,3.0,3.0,40.34,30.34,140,0,2.29,1.94,2.59,1.52,cw,10.0,35.0,300.0,0,1,1.227,0.526
75,20.0,20.0,44.01,54.01,140,0,14.39,13.89,11.75,16.18,ccw,10.0,35.0,300.0,0,1,1.5489,0.668
76,16.0,16.0,179.56,189.56,0,1,-16.0,0.12,-15.78,-2.66,ccw,10.0,35.0,300.0,1,1,1.2275,1.042
77,12.0,12.0,145.88,135.88,0,1,-9.93,6.73,-8.61,8.35,cw,10.0,35.0,300.0,1,1,1.3477,0.63
78,16.0,16.0,8.03,18.03,115,0,15.84,2.23,15.21,4.95,ccw,10.0,35.0,300.0,0,1,1.2106,0.677
79,3.0,3.0,305.65,315.65,40,0,1.75,-2.44,2.15,-2.1,ccw,10.0,35.0,300.0,0,1,1.2939,1.084
80,20.0,20.0,22.06,32.06,40,0,18.54,7.51,16.95,10.62,ccw,10.0,35.0,300.0,0,1,1.508,0.466
81,12.0,12.0,176.01,186.01,140,0,-11.97,0.84,-11.93,-1.26,ccw,10.0,35.0,300.0,0,1,1.2599,1.202
82,20.0,20.0,11.21,21.21,0,1,19.62,3.89,18.65,7.23,ccw,10.0,35.0,300.0,1,1,1.3426,0.331
83,6.0,6.0,298.89,308.89,0,1,2.9,-5.25,3.77,-4.67,ccw,10.0,35.0,300.0,1,1,1.2712,0.55
84,16.0,16.0,125.09,115.09,40,0,-9.2,13.09,-6.79,14.49,cw,10.0,35.0,300.0,0,1,1.2054,0.524
85,20.0,20.0,261.68,271.68,140,0,-2.89,-19.79,0.59,-19.99,ccw,10.0,10.0,300.0,0,1,1.5253,0.556
86,20.0,20.0,89.22,79.22,0,1,0.27,20.0,3.74,19.65,cw,10.0,10.0,300.0,0,0,1.7734,0.424
87,3.0,3.0,137.58,127.58,0,1,-2.21,2.02,-1.83,2.38,cw,10.0,35.0,300.0,1,1,1.1782,0.93
88,16.0,16.0,181.68,171.68,0,1,-15.99,-0.47,-15.83,2.32,cw,10.0,35.0,300.0,1,1,1.1106,1.084
89,20.0,20.0,354.95,4.95,0,1,19.92,-1.76,19.93,1.73,ccw,10.0,35.0,300.0,1,1,1.2107,0.869
90,20.0,20.0,121.03,111.03,140,0,-10.31,17.14,-7.18,18.67,cw,10.0,10.0,300.0,0,1,1.8715,0.975
91,12.0,12.0,41.22,31.22,115,0,9.03,7.91,10.26,6.22,cw,10.0,35.0,300.0,0,1,1.4426,1.351
92,6.0,6.0,226.89,216.89,0,1,-4.1,-4.38,-4.8,-3.6,cw,10.0,35.0,300.0,1,1,1.3132,0.726
93,12.0,12.0,295.03,285.03,40,0,5.08,-10.87,3.11,-11.59,cw,10.0,35.0,300.0,0,1,1.2583,0.729
94,16.0,16.0,299.11,309.11,0,1,7.78,-13.98,10.09,-12.41,ccw,10.0,35.0,300.0,1,1,1.5209,0.659
95,20.0,20.0,335.1,345.1,40,0,18.14,-8.42,19.33,-5.14,ccw,10.0,35.0,300.0,0,1,1.4223,0.894
96,12.0,12.0,281.23,271.23,40,0,2.34,-11.77,0.26,-12.0,cw,10.0,35.0,300.0,0,1,1.244,0.525
97,6.0,6.0,122.61,132.61,0,1,-3.23,5.05,-4.06,4.42,ccw,10.0,35.0,300.0,1,1,1.1888,0.525
98,12.0,12.0,319.1,329.1,65,0,9.07,-7.86,10.3,-6.16,ccw,10.0,35.0,300.0,0,1,1.3408,1.132
99,12.0,12.0,339.3,349.3,0,1,11.23,-4.24,11.79,-2.23,ccw,10.0,35.0,300.0,1,1,1.2822,0.749
100,6.0,6.0,84.2,74.2,0,1,0.61,5.97,1.63,5.77,cw,10.0,35.0,300.0,1,1,1.1966,0.307
