trial,ecc_deg_intended,ecc_deg_actual,angle_start_deg,angle_end_deg,orientation_deg,stim_type,x_start_deg,y_start_deg,x_end_deg,y_end_deg,rot_dir,moved_angle_deg,gabor_px,stim_speed_px_s,response,correct,rt,CalibrationDrift(deg)
1,6.0,6.0,357.06,7.06,140,0,5.99,-0.31,5.95,0.74,ccw,10.0,35.0,0.0,0,1,1.2019,5.241
2,6.0,6.0,305.15,315.15,65,0,3.45,-4.91,4.25,-4.23,ccw,10.0,35.0,0.0,0,1,1.5486,5.397
3,16.0,16.0,337.12,327.12,0,1,14.74,-6.22,13.44,-8.69,cw,10.0,35.0,0.0,0,0,3.4223,0.28
4,12.0,12.0,288.17,298.17,65,0,3.74,-11.4,5.67,-10.58,ccw,10.0,35.0,0.0,0,1,4.2311,6.264
5,16.0,16.0,288.79,278.79,0,1,5.15,-15.15,2.44,-15.81,cw,10.0,35.0,0.0,1,1,3.1206,0.147
6,16.0,16.0,209.26,199.26,115,0,-13.96,-7.82,-15.1,-5.28,cw,10.0,35.0,0.0,0,1,4.8931,0.653
7,20.0,20.0,236.33,246.33,115,0,-11.09,-16.64,-8.03,-18.32,ccw,10.0,35.0,0.0,0,1,6.194,5.49
8,16.0,16.0,234.97,244.97,65,0,-9.18,-13.1,-6.77,-14.5,ccw,10.0,35.0,0.0,0,1,9.8181,0.526
9,6.0,6.0,168.12,158.12,40,0,-5.87,1.24,-5.57,2.24,cw,10.0,35.0,0.0,0,1,1.0749,0.272
10,20.0,20.0,19.76,9.76,115,0,18.82,6.76,19.71,3.39,cw,10.0,35.0,0.0,0,1,1.3868,0.13
11,16.0,16.0,145.62,155.62,40,0,-13.2,9.04,-14.57,6.6,ccw,10.0,35.0,0.0,1,0,1.5789,0.294
12,20.0,20.0,284.53,274.53,65,0,5.02,-19.36,1.58,-19.94,cw,10.0,10.0,0.0,0,1,2.1831,5.339
13,6.0,6.0,147.65,157.65,40,0,-5.07,3.21,-5.55,2.28,ccw,10.0,35.0,0.0,0,1,1.0748,0.648
14,16.0,16.0,221.72,231.72,0,1,-11.94,-10.65,-9.91,-12.56,ccw,10.0,35.0,0.0,1,1,3.1349,0.504
15,20.0,20.0,74.18,64.18,65,0,5.45,19.24,8.71,18.0,cw,10.0,10.0,0.0,0,1,1.9287,3.129
16,16.0,16.0,201.81,211.81,0,1,-14.85,-5.95,-13.6,-8.43,ccw,10.0,35.0,0.0,0,0,2.4004,10.554
17,3.0,3.0,329.32,339.32,140,0,2.58,-1.53,2.81,-1.06,ccw,10.0,35.0,0.0,0,1,0.9516,0.696
18,16.0,16.0,225.8,215.8,140,0,-11.15,-11.47,-12.98,-9.36,cw,10.0,35.0,0.0,1,0,3.0088,0.771
19,16.0,16.0,324.48,314.48,65,0,13.02,-9.3,11.21,-11.42,cw,10.0,35.0,0.0,0,1,2.8426,0.341
20,20.0,20.0,133.02,143.02,0,1,-13.65,14.62,-15.98,12.03,ccw,10.0,35.0,0.0,0,0,4.3326,3.504
21,6.0,6.0,138.28,128.28,0,1,-4.48,3.99,-3.72,4.71,cw,10.0,35.0,0.0,1,1,0.8636,0.328
22,12.0,12.0,218.22,228.22,0,1,-9.43,-7.42,-8.0,-8.95,ccw,10.0,35.0,0.0,0,0,3.3409,6.086
23,3.0,3.0,352.4,2.4,0,1,2.97,-0.4,3.0,0.13,ccw,10.0,35.0,0.0,1,1,1.1653,5.35
24,12.0,12.0,24.12,34.12,0,1,10.95,4.9,9.93,6.73,ccw,10.0,35.0,0.0,1,1,1.1118,0.47
25,3.0,3.0,145.81,135.81,0,1,-2.48,1.69,-2.15,2.09,cw,10.0,35.0,0.0,1,1,0.9042,0.25
26,20.0,20.0,109.13,119.13,0,1,-6.55,18.9,-9.74,17.47,ccw,10.0,10.0,0.0,0,0,1.9297,3.035
27,16.0,16.0,246.35,256.35,40,0,-6.42,-14.66,-3.78,-15.55,ccw,10.0,35.0,0.0,0,1,1.2871,0.749
28,6.0,6.0,7.06,357.06,0,1,5.95,0.74,5.99,-0.31,cw,10.0,35.0,0.0,1,1,0.8606,0.626
29,16.0,16.0,338.68,328.68,115,0,14.91,-5.82,13.67,-8.32,cw,10.0,35.0,0.0,0,1,1.1101,0.659
30,6.0,6.0,311.92,321.92,0,1,4.01,-4.46,4.72,-3.7,ccw,10.0,35.0,0.0,1,1,0.8737,0.639
31,16.0,16.0,54.94,44.94,0,1,9.19,13.1,11.33,11.3,cw,10.0,35.0,0.0,0,0,1.6623,0.697
32,16.0,16.0,208.17,198.17,115,0,-14.1,-7.55,-15.2,-4.99,cw,10.0,35.0,0.0,0,1,1.6271,0.706
33,12.0,12.0,147.59,157.59,115,0,-10.13,6.43,-11.09,4.58,ccw,10.0,35.0,0.0,1,0,1.6699,1.005
34,12.0,12.0,323.38,313.38,115,0,9.63,-7.16,8.24,-8.72,cw,10.0,35.0,0.0,0,1,1.7977,1.097
35,16.0,16.0,171.76,181.76,140,0,-15.83,2.29,-15.99,-0.49,ccw,10.0,35.0,0.0,0,1,1.6928,0.523
36,12.0,12.0,308.43,298.43,0,1,7.46,-9.4,5.71,-10.55,cw,10.0,35.0,0.0,1,1,0.9259,1.133
37,6.0,6.0,99.78,89.78,140,0,-1.02,5.91,0.02,6.0,cw,10.0,35.0,0.0,0,1,1.0452,1.17
38,6.0,6.0,357.88,7.88,0,1,6.0,-0.22,5.94,0.82,ccw,10.0,35.0,0.0,1,1,0.7338,0.659
39,6.0,6.0,259.07,249.07,115,0,-1.14,-5.89,-2.14,-5.6,cw,10.0,35.0,0.0,0,1,1.1094,0.807
40,3.0,3.0,212.01,202.01,0,1,-2.54,-1.59,-2.78,-1.12,cw,10.0,35.0,0.0,1,1,0.9064,0.81
41,3.0,3.0,44.77,54.77,115,0,2.13,2.11,1.73,2.45,ccw,10.0,35.0,0.0,0,1,0.9207,3.37
42,6.0,6.0,201.56,211.56,0,1,-5.58,-2.2,-5.11,-3.14,ccw,10.0,35.0,0.0,1,1,0.8846,1.034
43,3.0,3.0,215.46,225.46,0,1,-2.44,-1.74,-2.1,-2.14,ccw,10.0,35.0,0.0,1,1,0.7533,5.842
44,20.0,20.0,346.11,356.11,0,1,19.42,-4.8,19.95,-1.36,ccw,10.0,35.0,0.0,0,0,1.4308,1.388
45,16.0,16.0,159.79,169.79,40,0,-15.02,5.53,-15.75,2.84,ccw,10.0,35.0,0.0,0,1,1.2115,0.491
46,20.0,20.0,105.21,115.21,65,0,-5.25,19.3,-8.52,18.1,ccw,10.0,10.0,0.0,0,1,1.7156,0.817
47,16.0,16.0,53.04,43.04,140,0,9.62,12.78,11.69,10.92,cw,10.0,35.0,0.0,0,1,1.1438,0.392
48,16.0,16.0,358.16,8.16,40,0,15.99,-0.51,15.84,2.27,ccw,10.0,35.0,0.0,0,1,1.683,0.34
49,20.0,20.0,343.33,333.33,40,0,19.16,-5.74,17.87,-8.98,cw,10.0,35.0,0.0,0,1,1.6578,0.649
50,12.0,12.0,167.48,177.48,40,0,-11.71,2.6,-11.99,0.53,ccw,10.0,35.0,0.0,0,1,1.1054,0.373
51,20.0,20.0,67.62,57.62,140,0,7.61,18.49,10.71,16.89,cw,10.0,10.0,0.0,0,1,2.7145,0.405
52,12.0,12.0,252.47,242.47,115,0,-3.61,-11.44,-5.55,-10.64,cw,10.0,35.0,0.0,0,1,1.5087,0.88
53,12.0,12.0,79.2,89.2,40,0,2.25,11.79,0.17,12.0,ccw,10.0,35.0,0.0,0,1,1.0361,0.848
54,12.0,12.0,237.21,247.21,0,1,-6.5,-10.09,-4.65,-11.06,ccw,10.0,35.0,0.0,1,1,1.4075,0.331
55,6.0,6.0,309.93,299.93,0,1,3.85,-4.6,2.99,-5.2,cw,10.0,35.0,0.0,1,1,0.9262,0.692
56,3.0,3.0,43.09,33.09,65,0,2.19,2.05,2.51,1.64,cw,10.0,35.0,0.0,0,1,0.8796,0.648
57,12.0,12.0,344.15,354.15,140,0,11.54,-3.28,11.94,-1.22,ccw,10.0,35.0,0.0,0,1,0.9167,0.922
58,16.0,16.0,145.02,135.02,40,0,-13.11,9.17,-11.32,11.31,cw,10.0,35.0,0.0,0,1,2.1922,0.37
59,16.0,16.0,289.09,279.09,0,1,5.23,-15.12,2.53,-15.8,cw,10.0,35.0,0.0,1,1,1.0793,0.936
60,20.0,20.0,38.27,28.27,65,0,15.7,12.39,17.61,9.47,cw,10.0,35.0,0.0,0,1,2.8299,0.848
61,6.0,6.0,38.73,48.73,0,1,4.68,3.75,3.96,4.51,ccw,10.0,35.0,0.0,1,1,0.8759,0.454
62,20.0,20.0,283.87,273.87,0,1,4.79,-19.42,1.35,-19.95,cw,10.0,10.0,0.0,0,0,2.6105,0.358
63,3.0,3.0,353.64,343.64,0,1,2.98,-0.33,2.88,-0.84,cw,10.0,35.0,0.0,1,1,0.7991,0.549
64,20.0,20.0,158.36,168.36,0,1,-18.59,7.38,-19.59,4.03,ccw,10.0,35.0,0.0,0,0,2.5816,0.515
65,3.0,3.0,317.7,307.7,0,1,2.22,-2.02,1.83,-2.37,cw,10.0,35.0,0.0,1,1,0.7446,0.691
66,20.0,20.0,276.99,286.99,0,1,2.43,-19.85,5.84,-19.13,ccw,10.0,10.0,0.0,0,0,1.205,0.565
67,3.0,3.0,327.54,337.54,0,1,2.53,-1.61,2.77,-1.15,ccw,10.0,35.0,0.0,1,1,0.7307,0.875
68,3.0,3.0,346.08,336.08,0,1,2.91,-0.72,2.74,-1.22,cw,10.0,35.0,0.0,1,1,0.8255,0.622
69,20.0,20.0,83.57,93.57,65,0,2.24,19.87,-1.24,19.96,ccw,10.0,10.0,0.0,0,1,2.1169,2.92
70,20.0,20.0,359.65,9.65,0,1,20.0,-0.12,19.72,3.35,ccw,10.0,35.0,0.0,0,0,1.4761,0.674
71,20.0,20.0,18.48,8.48,0,1,18.97,6.34,19.78,2.95,cw,10.0,35.0,0.0,0,0,3.1324,0.751
72,3.0,3.0,243.27,233.27,0,1,-1.35,-2.68,-1.79,-2.4,cw,10.0,35.0,0.0,1,1,0.8452,0.711
73,6.0,6.0,264.62,274.62,65,0,-0.56,-5.97,0.48,-5.98,ccw,10.0,35.0,0.0,0,1,0.9,0.614
74,12.0,12.0,354.77,344.77,0,1,11.95,-1.09,11.58,-3.15,cw,10.0,35.0,0.0,1,1,1.0685,0.809
75,20.0,20.0,73.62,63.62,0,1,5.64,19.19,8.89,17.92,cw,10.0,10.0,0.0,0,0,2.2722,0.477
76,12.0,12.0,301.34,291.34,0,1,6.24,-10.25,4.37,-11.18,cw,10.0,35.0,0.0,1,1,0.9661,1.376
77,16.0,16.0,38.68,28.68,0,1,12.49,10.0,14.04,7.68,cw,10.0,35.0,0.0,0,0,1.3085,0.383
78,20.0,20.0,6.39,16.39,40,0,19.88,2.23,19.19,5.64,ccw,10.0,35.0,0.0,0,1,1.3535,0.766
79,3.0,3.0,353.29,3.29,0,1,2.98,-0.35,3.0,0.17,ccw,10.0,35.0,0.0,1,1,0.6802,0.792
80,20.0,20.0,232.67,222.67,0,1,-12.13,-15.9,-14.71,-13.56,cw,10.0,35.0,0.0,0,0,1.4777,1.223
81,20.0,20.0,262.83,252.83,0,1,-2.5,-19.84,-5.91,-19.11,cw,10.0,10.0,0.0,0,0,2.3853,0.949
82,20.0,20.0,66.44,76.44,115,0,8.0,18.33,4.69,19.44,ccw,10.0,10.0,0.0,0,1,1.8363,0.58
83,16.0,16.0,205.61,215.61,0,1,-14.43,-6.92,-13.01,-9.32,ccw,10.0,35.0,0.0,1,1,0.9852,0.842
84,6.0,6.0,139.95,149.95,0,1,-4.59,3.86,-5.19,3.0,ccw,10.0,35.0,0.0,1,1,0.8704,0.49
85,12.0,12.0,293.78,303.78,0,1,4.84,-10.98,6.67,-9.97,ccw,10.0,35.0,0.0,1,1,1.1196,0.729
86,3.0,3.0,36.54,46.54,0,1,2.41,1.79,2.06,2.18,ccw,10.0,35.0,0.0,1,1,0.9069,0.33
87,16.0,16.0,152.04,142.04,65,0,-14.13,7.5,-12.61,9.84,cw,10.0,35.0,0.0,0,1,1.2895,0.513
88,12.0,12.0,353.7,3.7,0,1,11.93,-1.32,11.97,0.77,ccw,10.0,35.0,0.0,1,1,0.9003,0.863
89,3.0,3.0,69.69,79.69,0,1,1.04,2.81,0.54,2.95,ccw,10.0,35.0,0.0,1,1,0.7653,0.424
90,16.0,16.0,191.2,181.2,40,0,-15.7,-3.11,-16.0,-0.34,cw,10.0,35.0,0.0,0,1,0.9438,0.867
91,16.0,16.0,81.32,71.32,140,0,2.42,15.82,5.13,15.16,cw,10.0,35.0,0.0,0,1,1.3755,0.322
92,6.0,6.0,35.53,25.53,115,0,4.88,3.49,5.41,2.59,cw,10.0,35.0,0.0,0,1,1.0327,0.75
93,16.0,16.0,146.18,156.18,0,1,-13.29,8.91,-14.64,6.46,ccw,10.0,35.0,0.0,1,1,1.9137,0.419
94,20.0,20.0,203.74,193.74,40,0,-18.31,-8.05,-19.43,-4.75,cw,10.0,35.0,0.0,0,1,1.2313,0.506
95,6.0,6.0,94.92,84.92,40,0,-0.52,5.98,0.53,5.98,cw,10.0,35.0,0.0,0,1,1.0645,0.442
96,12.0,12.0,122.3,112.3,65,0,-6.41,10.14,-4.55,11.1,cw,10.0,35.0,0.0,0,1,1.0421,0.887
97,12.0,12.0,285.12,295.12,40,0,3.13,-11.58,5.09,-10.87,ccw,10.0,35.0,0.0,0,1,1.71,6.979
98,16.0,16.0,202.3,192.3,40,0,-14.8,-6.07,-15.63,-3.41,cw,10.0,35.0,0.0,0,1,1.1575,0.58
99,3.0,3.0,18.6,8.6,0,1,2.84,0.96,2.97,0.45,cw,10.0,35.0,0.0,1,1,0.9011,0.746
100,20.0,20.0,42.12,32.12,0,1,14.83,13.41,16.94,10.63,cw,10.0,35.0,0.0,1,1,1.1366,0.406
