trial,ecc_deg_intended,ecc_deg_actual,angle_start_deg,angle_end_deg,orientation_deg,stim_type,x_start_deg,y_start_deg,x_end_deg,y_end_deg,rot_dir,moved_angle_deg,gabor_px,stim_speed_px_s,response,correct,rt,CalibrationDrift(deg)
1,6.0,6.0,264.33,254.33,140,0,-0.59,-5.97,-1.62,-5.78,cw,10.0,35.0,400.0,0,1,1.9482,1.302
2,20.0,20.0,268.86,258.86,0,1,-0.4,-20.0,-3.86,-19.62,cw,10.0,10.0,400.0,0,0,2.2465,0.43
3,12.0,12.0,29.27,19.27,115,0,10.47,5.87,11.33,3.96,cw,10.0,35.0,400.0,0,1,1.2758,0.912
4,12.0,12.0,247.77,257.77,0,1,-4.54,-11.11,-2.54,-11.73,ccw,10.0,35.0,400.0,1,1,1.5991,1.306
5,3.0,3.0,18.15,8.15,65,0,2.85,0.93,2.97,0.43,cw,10.0,35.0,400.0,0,1,1.2452,1.329
6,20.0,20.0,128.11,118.11,0,1,-12.34,15.74,-9.42,17.64,cw,10.0,35.0,400.0,0,0,3.1115,0.757
7,20.0,20.0,286.89,276.89,115,0,5.81,-19.14,2.4,-19.86,cw,10.0,10.0,400.0,0,1,1.334,0.515
8,6.0,6.0,277.82,267.82,0,1,0.82,-5.94,-0.23,-6.0,cw,10.0,35.0,400.0,1,1,1.2363,0.642
9,12.0,12.0,339.77,329.77,0,1,11.26,-4.15,10.37,-6.04,cw,10.0,35.0,400.0,1,1,1.3726,0.714
10,6.0,6.0,347.5,357.5,0,1,5.86,-1.3,5.99,-0.26,ccw,10.0,35.0,400.0,1,1,1.3691,0.712
11,3.0,3.0,305.82,295.82,0,1,1.76,-2.43,1.31,-2.7,cw,10.0,35.0,400.0,1,1,1.318,4.64
12,12.0,12.0,280.58,290.58,40,0,2.2,-11.8,4.22,-11.23,ccw,10.0,35.0,400.0,0,1,1.3022,0.772
13,6.0,6.0,6.09,356.09,65,0,5.97,0.64,5.99,-0.41,cw,10.0,35.0,400.0,0,1,1.3413,0.775
14,20.0,20.0,41.59,51.59,0,1,14.96,13.28,12.43,15.67,ccw,10.0,35.0,400.0,1,1,1.4143,1.003
15,20.0,20.0,264.15,274.15,0,1,-2.04,-19.9,1.45,-19.95,ccw,10.0,10.0,400.0,0,0,1.2546,0.725
16,20.0,20.0,304.59,294.59,40,0,11.35,-16.47,8.32,-18.19,cw,10.0,35.0,400.0,0,1,1.2853,0.799
17,6.0,6.0,184.51,174.51,0,1,-5.98,-0.47,-5.97,0.57,cw,10.0,35.0,400.0,1,1,1.2411,7.365
18,12.0,12.0,93.63,83.63,0,1,-0.76,11.98,1.33,11.93,cw,10.0,35.0,400.0,1,1,1.3305,0.695
19,6.0,6.0,41.87,51.87,0,1,4.47,4.0,3.7,4.72,ccw,10.0,35.0,400.0,1,1,1.3813,0.577
20,20.0,20.0,206.42,196.42,115,0,-17.91,-8.9,-19.18,-5.65,cw,10.0,35.0,400.0,0,1,1.6692,6.028
21,20.0,20.0,163.6,173.6,140,0,-19.19,5.65,-19.88,2.23,ccw,10.0,35.0,400.0,0,1,1.41,0.663
22,16.0,16.0,123.54,133.54,40,0,-8.84,13.34,-11.02,11.6,ccw,10.0,35.0,400.0,0,1,1.4468,0.908
23,20.0,20.0,111.43,121.43,140,0,-7.31,18.62,-10.43,17.06,ccw,10.0,10.0,400.0,0,1,1.7777,4.842
24,6.0,6.0,37.68,27.68,0,1,4.75,3.67,5.31,2.79,cw,10.0,35.0,400.0,1,1,1.5472,0.587
25,20.0,20.0,18.5,28.5,65,0,18.97,6.35,17.58,9.54,ccw,10.0,35.0,400.0,0,1,3.0595,0.576
26,3.0,3.0,36.14,26.14,140,0,2.42,1.77,2.69,1.32,cw,10.0,35.0,400.0,0,1,1.26,0.461
27,16.0,16.0,150.66,140.66,0,1,-13.95,7.84,-12.38,10.14,cw,10.0,35.0,400.0,1,1,1.3402,0.496
28,12.0,12.0,163.41,173.41,65,0,-11.5,3.43,-11.92,1.38,ccw,10.0,35.0,400.0,0,1,1.2051,0.549
29,20.0,20.0,281.57,271.57,140,0,4.01,-19.59,0.55,-19.99,cw,10.0,10.0,400.0,0,1,1.4896,0.307
30,12.0,12.0,185.43,195.43,115,0,-11.95,-1.13,-11.57,-3.19,ccw,10.0,35.0,400.0,0,1,1.1728,8.679
31,20.0,20.0,120.51,110.51,115,0,-10.15,17.23,-7.01,18.73,cw,10.0,10.0,400.0,0,1,1.3724,0.287
32,20.0,20.0,25.45,35.45,0,1,18.06,8.59,16.29,11.6,ccw,10.0,35.0,400.0,1,1,1.4234,1.272
33,12.0,12.0,254.51,244.51,0,1,-3.21,-11.56,-5.16,-10.83,cw,10.0,35.0,400.0,1,1,1.2383,0.892
34,20.0,20.0,54.77,64.77,65,0,11.54,16.34,8.53,18.09,ccw,10.0,35.0,400.0,0,1,1.5245,0.424
35,20.0,20.0,42.62,52.62,0,1,14.72,13.54,12.14,15.89,ccw,10.0,35.0,400.0,1,1,2.6222,0.542
36,20.0,20.0,16.65,26.65,0,1,19.16,5.73,17.87,8.97,ccw,10.0,35.0,400.0,1,1,1.2049,2.28
37,16.0,16.0,256.58,246.58,0,1,-3.71,-15.56,-6.36,-14.68,cw,10.0,35.0,400.0,1,1,1.9109,5.821
38,3.0,3.0,151.24,141.24,115,0,-2.63,1.44,-2.34,1.88,cw,10.0,35.0,400.0,0,1,1.0934,0.726
39,20.0,20.0,147.61,137.61,115,0,-16.89,10.71,-14.77,13.48,cw,10.0,35.0,400.0,0,1,1.2818,0.98
40,20.0,20.0,126.86,116.86,115,0,-12.0,16.0,-9.04,17.84,cw,10.0,35.0,400.0,0,1,1.369,0.232
41,3.0,3.0,44.1,34.1,0,1,2.15,2.09,2.48,1.68,cw,10.0,35.0,400.0,1,1,1.2398,0.601
42,12.0,12.0,245.06,255.06,0,1,-5.06,-10.88,-3.09,-11.59,ccw,10.0,35.0,400.0,1,1,1.4248,0.38
43,6.0,6.0,239.59,249.59,0,1,-3.04,-5.17,-2.09,-5.62,ccw,10.0,35.0,400.0,1,1,1.2202,0.463
44,3.0,3.0,238.18,248.18,140,0,-1.58,-2.55,-1.11,-2.79,ccw,10.0,35.0,400.0,0,1,1.1273,0.516
45,20.0,20.0,19.14,29.14,140,0,18.89,6.56,17.47,9.74,ccw,10.0,35.0,400.0,0,1,1.2674,0.521
46,6.0,6.0,210.55,200.55,140,0,-5.17,-3.05,-5.62,-2.11,cw,10.0,35.0,400.0,0,1,1.1469,0.638
47,12.0,12.0,105.74,115.74,65,0,-3.25,11.55,-5.21,10.81,ccw,10.0,35.0,400.0,0,1,1.1483,0.577
48,3.0,3.0,65.28,75.28,115,0,1.25,2.73,0.76,2.9,ccw,10.0,35.0,400.0,0,1,1.1664,0.414
49,20.0,20.0,130.6,140.6,65,0,-13.02,15.18,-15.46,12.69,ccw,10.0,35.0,400.0,0,1,1.4283,0.5
50,3.0,3.0,226.93,236.93,65,0,-2.05,-2.19,-1.64,-2.51,ccw,10.0,35.0,400.0,0,1,1.1512,3.083
51,12.0,12.0,341.43,351.43,65,0,11.38,-3.82,11.87,-1.79,ccw,10.0,35.0,400.0,0,1,1.0887,0.685
52,20.0,20.0,56.84,46.84,65,0,10.94,16.74,13.68,14.59,cw,10.0,31.094,400.0,0,1,1.4074,0.393
53,6.0,6.0,131.35,121.35,0,1,-3.96,4.5,-3.12,5.12,cw,10.0,35.0,400.0,1,1,1.1585,0.674
54,16.0,16.0,212.88,202.88,0,1,-13.44,-8.69,-14.74,-6.22,cw,10.0,35.0,400.0,1,1,1.304,0.15
55,3.0,3.0,61.77,71.77,0,1,1.42,2.64,0.94,2.85,ccw,10.0,35.0,400.0,1,1,1.4049,0.614
56,6.0,6.0,85.72,95.72,0,1,0.45,5.98,-0.6,5.97,ccw,10.0,35.0,400.0,1,1,1.3259,0.979
57,16.0,16.0,210.26,220.26,115,0,-13.82,-8.06,-12.21,-10.34,ccw,10.0,35.0,400.0,0,1,1.2971,0.976
58,16.0,16.0,102.85,92.85,0,1,-3.56,15.6,-0.79,15.98,cw,10.0,35.0,400.0,1,1,2.2055,0.692
59,12.0,12.0,71.72,81.72,40,0,3.76,11.39,1.73,11.87,ccw,10.0,35.0,400.0,0,1,1.1417,5.621
60,16.0,16.0,286.25,296.25,0,1,4.48,-15.36,7.08,-14.35,ccw,10.0,35.0,400.0,0,0,2.3276,8.178
61,12.0,12.0,217.05,227.05,0,1,-9.58,-7.23,-8.18,-8.78,ccw,10.0,35.0,400.0,1,1,1.1749,0.869
62,6.0,6.0,136.69,146.69,0,1,-4.37,4.12,-5.01,3.29,ccw,10.0,35.0,400.0,1,1,1.2089,0.369
63,12.0,12.0,259.87,249.87,0,1,-2.11,-11.81,-4.13,-11.27,cw,10.0,35.0,400.0,1,1,1.4356,4.664
64,6.0,6.0,115.79,105.79,0,1,-2.61,5.4,-1.63,5.77,cw,10.0,35.0,400.0,1,1,1.1856,6.425
65,12.0,12.0,95.71,85.71,65,0,-1.19,11.94,0.9,11.97,cw,10.0,35.0,400.0,0,1,1.0316,0.49
66,6.0,6.0,308.81,298.81,140,0,3.76,-4.68,2.89,-5.26,cw,10.0,35.0,400.0,0,1,1.064,0.846
67,20.0,20.0,34.59,44.59,0,1,16.46,11.35,14.24,14.04,ccw,10.0,35.0,400.0,1,1,1.1621,8.05
68,3.0,3.0,213.03,203.03,65,0,-2.52,-1.64,-2.76,-1.17,cw,10.0,35.0,400.0,0,1,1.2166,0.319
69,12.0,12.0,140.57,150.57,140,0,-9.27,7.62,-10.45,5.9,ccw,10.0,35.0,400.0,0,1,1.312,1.128
70,20.0,20.0,228.21,238.21,140,0,-13.33,-14.91,-10.53,-17.0,ccw,10.0,35.0,400.0,0,1,1.5762,0.693
71,16.0,16.0,249.39,259.39,0,1,-5.63,-14.98,-2.95,-15.73,ccw,10.0,35.0,400.0,0,0,1.6036,2.582
72,16.0,16.0,336.89,346.89,40,0,14.72,-6.28,15.58,-3.63,ccw,10.0,35.0,400.0,0,1,1.4672,0.833
73,12.0,12.0,329.47,319.47,0,1,10.34,-6.1,9.12,-7.8,cw,10.0,35.0,400.0,1,1,1.1587,0.549
74,6.0,6.0,283.38,293.38,0,1,1.39,-5.84,2.38,-5.51,ccw,10.0,35.0,400.0,1,1,1.3454,9.209
75,3.0,3.0,8.39,18.39,0,1,2.97,0.44,2.85,0.95,ccw,10.0,35.0,400.0,1,1,1.2444,1.425
76,16.0,16.0,183.95,193.95,0,1,-15.96,-1.1,-15.53,-3.86,ccw,10.0,35.0,400.0,1,1,1.0979,0.542
77,16.0,16.0,23.71,13.71,0,1,14.65,6.43,15.54,3.79,cw,10.0,35.0,400.0,1,1,1.2128,0.739
78,12.0,12.0,152.56,162.56,140,0,-10.65,5.53,-11.45,3.6,ccw,10.0,35.0,400.0,0,1,1.2603,1.394
79,20.0,20.0,188.36,178.36,0,1,-19.79,-2.91,-19.99,0.57,cw,10.0,35.0,400.0,1,1,1.2056,14.925
80,16.0,16.0,188.43,178.43,115,0,-15.83,-2.35,-15.99,0.44,cw,10.0,35.0,400.0,0,1,1.3958,15.641
81,12.0,12.0,225.74,215.74,0,1,-8.37,-8.59,-9.74,-7.01,cw,10.0,35.0,400.0,1,1,1.3569,6.208
82,20.0,20.0,261.24,271.24,40,0,-3.05,-19.77,0.43,-20.0,ccw,10.0,10.0,400.0,0,1,1.5465,0.859
83,16.0,16.0,238.69,228.69,0,1,-8.31,-13.67,-10.56,-12.02,cw,10.0,35.0,400.0,0,0,2.0227,0.761
84,20.0,20.0,355.21,5.21,140,0,19.93,-1.67,19.92,1.81,ccw,10.0,35.0,400.0,0,1,1.1624,1.812
85,20.0,20.0,318.22,308.22,40,0,14.91,-13.33,12.37,-15.71,cw,10.0,35.0,400.0,0,1,1.3785,0.886
86,16.0,16.0,143.82,133.82,65,0,-12.91,9.45,-11.08,11.54,cw,10.0,35.0,400.0,0,1,1.4602,9.789
87,6.0,6.0,129.98,139.98,0,1,-3.85,4.6,-4.59,3.86,ccw,10.0,35.0,400.0,1,1,1.2006,0.978
88,20.0,20.0,77.72,87.72,140,0,4.25,19.54,0.8,19.98,ccw,10.0,10.0,400.0,0,1,1.5347,0.547
89,12.0,12.0,86.14,76.14,0,1,0.81,11.97,2.87,11.65,cw,10.0,35.0,400.0,1,1,1.3218,0.281
90,20.0,20.0,20.0,30.0,65,0,18.79,6.84,17.32,10.0,ccw,10.0,35.0,400.0,0,1,1.1222,1.331
91,3.0,3.0,277.69,267.69,0,1,0.4,-2.97,-0.12,-3.0,cw,10.0,35.0,400.0,1,1,1.3267,11.813
92,12.0,12.0,318.68,328.68,0,1,9.01,-7.92,10.25,-6.24,ccw,10.0,35.0,400.0,1,1,1.3661,0.371
93,6.0,6.0,177.5,167.5,65,0,-5.99,0.26,-5.86,1.3,cw,10.0,35.0,400.0,0,1,1.0869,0.591
94,16.0,16.0,237.05,227.05,0,1,-8.7,-13.43,-10.9,-11.71,cw,10.0,35.0,400.0,1,1,1.1513,0.876
95,3.0,3.0,42.27,52.27,140,0,2.22,2.02,1.84,2.37,ccw,10.0,35.0,400.0,0,1,1.1189,0.26
96,6.0,6.0,233.33,243.33,0,1,-3.58,-4.81,-2.69,-5.36,ccw,10.0,35.0,400.0,1,1,1.1111,0.337
97,12.0,12.0,348.55,338.55,115,0,11.76,-2.38,11.17,-4.39,cw,10.0,35.0,400.0,0,1,1.0846,0.492
98,12.0,12.0,28.57,18.57,140,0,10.54,5.74,11.38,3.82,cw,10.0,35.0,400.0,0,1,1.0658,1.123
99,20.0,20.0,93.93,83.93,0,1,-1.37,19.95,2.12,19.89,cw,10.0,10.0,400.0,0,0,1.1827,0.254
100,16.0,16.0,339.07,349.07,0,1,14.94,-5.71,15.71,-3.03,ccw,10.0,35.0,400.0,1,1,1.2814,1.325
