trial,ecc_deg_intended,ecc_deg_actual,angle_start_deg,angle_end_deg,orientation_deg,stim_type,x_start_deg,y_start_deg,x_end_deg,y_end_deg,rot_dir,moved_angle_deg,gabor_px,stim_speed_px_s,response,correct,rt,CalibrationDrift(deg)
1,12.0,12.0,258.22,268.22,40,0,-2.45,-11.75,-0.37,-11.99,ccw,10.0,35.0,200.0,0,1,0.796,0.195
2,20.0,20.0,167.85,177.85,0,1,-19.55,4.21,-19.99,0.75,ccw,10.0,35.0,200.0,0,0,0.9027,0.06
3,6.0,6.0,64.09,54.09,0,1,2.62,5.4,3.52,4.86,cw,10.0,35.0,200.0,1,1,0.7351,0.08
4,3.0,3.0,221.09,231.09,65,0,-2.26,-1.97,-1.88,-2.33,ccw,10.0,35.0,200.0,0,1,0.8446,0.346
5,12.0,12.0,111.24,121.24,140,0,-4.35,11.18,-6.22,10.26,ccw,10.0,35.0,200.0,0,1,0.8454,0.356
6,6.0,6.0,39.99,49.99,0,1,4.6,3.86,3.86,4.6,ccw,10.0,35.0,200.0,1,1,0.807,0.279
7,16.0,16.0,176.45,186.45,0,1,-15.97,0.99,-15.9,-1.8,ccw,10.0,35.0,200.0,1,1,0.9051,0.32
8,16.0,16.0,337.71,347.71,0,1,14.8,-6.07,15.63,-3.4,ccw,10.0,35.0,200.0,1,1,1.0879,0.186
9,3.0,3.0,348.27,338.27,115,0,2.94,-0.61,2.79,-1.11,cw,10.0,35.0,200.0,0,1,0.8393,0.17
10,3.0,3.0,264.92,274.92,140,0,-0.27,-2.99,0.26,-2.99,ccw,10.0,35.0,200.0,0,1,0.8348,0.39
11,16.0,16.0,192.77,202.77,65,0,-15.6,-3.54,-14.75,-6.19,ccw,10.0,35.0,200.0,0,1,0.8614,0.319
12,3.0,3.0,294.77,284.77,40,0,1.26,-2.72,0.76,-2.9,cw,10.0,35.0,200.0,0,1,0.9043,0.285
13,3.0,3.0,114.83,124.83,0,1,-1.26,2.72,-1.71,2.46,ccw,10.0,35.0,200.0,1,1,0.7751,0.18
14,16.0,16.0,63.76,53.76,0,1,7.08,14.35,9.46,12.9,cw,10.0,35.0,200.0,1,1,0.8395,0.253
15,12.0,12.0,170.92,160.92,0,1,-11.85,1.89,-11.34,3.92,cw,10.0,35.0,200.0,1,1,0.8674,0.409
16,12.0,12.0,289.01,299.01,0,1,3.91,-11.35,5.82,-10.49,ccw,10.0,35.0,200.0,1,1,0.803,1.006
17,6.0,6.0,231.52,221.52,65,0,-3.73,-4.7,-4.49,-3.98,cw,10.0,35.0,200.0,0,1,0.8668,0.587
18,20.0,20.0,287.65,297.65,40,0,6.06,-19.06,9.28,-17.72,ccw,10.0,10.0,200.0,0,1,1.1759,0.371
19,16.0,16.0,38.18,28.18,0,1,12.58,9.89,14.1,7.56,cw,10.0,35.0,200.0,1,1,0.8051,0.298
20,3.0,3.0,140.14,150.14,40,0,-2.3,1.92,-2.6,1.49,ccw,10.0,35.0,200.0,0,1,0.8122,0.284
21,20.0,20.0,90.28,100.28,0,1,-0.1,20.0,-3.57,19.68,ccw,10.0,10.0,200.0,0,0,1.0727,0.189
22,20.0,20.0,220.29,230.29,0,1,-15.26,-12.93,-12.78,-15.39,ccw,10.0,35.0,200.0,1,1,0.869,0.298
23,3.0,3.0,264.8,254.8,0,1,-0.27,-2.99,-0.79,-2.89,cw,10.0,35.0,200.0,1,1,0.7805,0.276
24,12.0,12.0,117.63,127.63,140,0,-5.56,10.63,-7.33,9.5,ccw,10.0,35.0,200.0,0,1,0.9484,0.519
25,12.0,12.0,45.99,55.99,0,1,8.34,8.63,6.71,9.95,ccw,10.0,35.0,200.0,1,1,0.9683,0.616
26,16.0,16.0,30.93,20.93,115,0,13.73,8.22,14.94,5.72,cw,10.0,35.0,200.0,0,1,1.1117,0.977
27,20.0,20.0,96.66,106.66,115,0,-2.32,19.87,-5.73,19.16,ccw,10.0,10.0,200.0,0,1,1.0722,0.512
28,12.0,12.0,318.48,308.48,0,1,8.99,-7.95,7.47,-9.39,cw,10.0,35.0,200.0,1,1,0.7719,0.518
29,16.0,16.0,294.78,284.78,140,0,6.71,-14.53,4.08,-15.47,cw,10.0,35.0,200.0,0,1,0.8436,3.515
30,6.0,6.0,23.26,13.26,40,0,5.51,2.37,5.84,1.38,cw,10.0,35.0,200.0,0,1,0.937,0.464
31,20.0,20.0,288.25,298.25,0,1,6.26,-18.99,9.47,-17.62,ccw,10.0,10.0,200.0,0,0,1.0329,0.482
32,16.0,16.0,235.06,225.06,0,1,-9.16,-13.12,-11.3,-11.32,cw,10.0,35.0,200.0,1,1,0.8312,0.2
33,6.0,6.0,14.32,4.32,0,1,5.81,1.48,5.98,0.45,cw,10.0,35.0,200.0,1,1,0.9092,2.67
34,6.0,6.0,185.87,195.87,40,0,-5.97,-0.61,-5.77,-1.64,ccw,10.0,35.0,200.0,0,1,0.9907,4.969
35,3.0,3.0,259.7,249.7,0,1,-0.54,-2.95,-1.04,-2.81,cw,10.0,35.0,200.0,1,1,0.8472,1.02
36,20.0,20.0,318.66,308.66,65,0,15.02,-13.21,12.49,-15.62,cw,10.0,35.0,200.0,0,1,0.8914,0.654
37,20.0,20.0,324.7,334.7,40,0,16.32,-11.56,18.08,-8.55,ccw,10.0,35.0,200.0,0,1,0.871,2.081
38,6.0,6.0,11.37,1.37,0,1,5.88,1.18,6.0,0.14,cw,10.0,35.0,200.0,1,1,0.847,1.962
39,12.0,12.0,20.25,10.25,65,0,11.26,4.15,11.81,2.13,cw,10.0,35.0,200.0,0,1,0.9631,5.693
40,3.0,3.0,323.38,333.38,0,1,2.41,-1.79,2.68,-1.34,ccw,10.0,35.0,200.0,1,1,0.8172,0.392
41,20.0,20.0,140.9,150.9,115,0,-15.52,12.61,-17.48,9.73,ccw,10.0,35.0,200.0,0,1,1.0209,0.159
42,3.0,3.0,106.88,116.88,115,0,-0.87,2.87,-1.36,2.68,ccw,10.0,35.0,200.0,0,1,0.9018,0.329
43,16.0,16.0,148.15,138.15,65,0,-13.59,8.44,-11.92,10.67,cw,10.0,35.0,200.0,0,1,1.0171,0.581
44,16.0,16.0,257.84,247.84,0,1,-3.37,-15.64,-6.04,-14.82,cw,10.0,35.0,200.0,1,1,0.8677,0.644
45,20.0,20.0,230.7,220.7,0,1,-12.67,-15.48,-15.16,-13.04,cw,10.0,35.0,200.0,1,1,0.8987,7.494
46,16.0,16.0,176.76,166.76,0,1,-15.97,0.9,-15.57,3.66,cw,10.0,35.0,200.0,1,1,0.9049,1.128
47,6.0,6.0,175.5,165.5,0,1,-5.98,0.47,-5.81,1.5,cw,10.0,35.0,200.0,1,1,0.9185,4.831
48,20.0,20.0,38.69,48.69,0,1,15.61,12.5,13.2,15.02,ccw,10.0,35.0,200.0,1,1,0.9484,0.362
49,12.0,12.0,29.89,19.89,0,1,10.4,5.98,11.28,4.08,cw,10.0,35.0,200.0,1,1,0.7862,16.957
50,12.0,12.0,260.51,270.51,40,0,-1.98,-11.84,0.11,-12.0,ccw,10.0,35.0,200.0,0,1,0.8626,0.372
51,12.0,12.0,336.98,346.98,115,0,11.04,-4.69,11.69,-2.7,ccw,10.0,35.0,200.0,0,1,0.9064,0.4
52,3.0,3.0,342.18,352.18,140,0,2.86,-0.92,2.97,-0.41,ccw,10.0,35.0,200.0,0,1,0.9231,0.298
53,3.0,3.0,205.73,215.73,115,0,-2.7,-1.3,-2.44,-1.75,ccw,10.0,35.0,200.0,0,1,0.8196,0.272
54,6.0,6.0,235.38,245.38,40,0,-3.41,-4.94,-2.5,-5.45,ccw,10.0,35.0,200.0,0,1,0.797,0.542
55,6.0,6.0,224.22,234.22,40,0,-4.3,-4.18,-3.51,-4.87,ccw,10.0,35.0,200.0,0,1,0.7927,0.281
56,6.0,6.0,4.98,14.98,0,1,5.98,0.52,5.8,1.55,ccw,10.0,35.0,200.0,1,1,0.7676,0.427
57,12.0,12.0,64.09,74.09,0,1,5.24,10.79,3.29,11.54,ccw,10.0,35.0,200.0,1,1,0.808,0.348
58,16.0,16.0,154.0,164.0,0,1,-14.38,7.01,-15.38,4.41,ccw,10.0,35.0,200.0,1,1,0.8429,0.534
59,3.0,3.0,175.76,185.76,140,0,-2.99,0.22,-2.98,-0.3,ccw,10.0,35.0,200.0,0,1,0.8361,0.8
60,6.0,6.0,130.17,120.17,0,1,-3.87,4.59,-3.01,5.19,cw,10.0,35.0,200.0,1,1,0.7447,0.468
61,16.0,16.0,181.42,171.42,65,0,-16.0,-0.4,-15.82,2.39,cw,10.0,35.0,200.0,0,1,0.8788,0.735
62,20.0,20.0,146.96,156.96,65,0,-16.77,10.9,-18.4,7.83,ccw,10.0,35.0,200.0,0,1,0.892,0.409
63,16.0,16.0,173.49,163.49,0,1,-15.9,1.81,-15.34,4.55,cw,10.0,35.0,200.0,1,1,0.8508,0.173
64,16.0,16.0,288.45,278.45,140,0,5.06,-15.18,2.35,-15.83,cw,10.0,35.0,200.0,0,1,1.0932,4.5
65,3.0,3.0,153.89,163.89,40,0,-2.69,1.32,-2.88,0.83,ccw,10.0,35.0,200.0,0,1,0.8967,0.331
66,16.0,16.0,25.72,35.72,0,1,14.41,6.94,12.99,9.34,ccw,10.0,35.0,200.0,1,1,0.8431,0.255
67,12.0,12.0,235.13,245.13,0,1,-6.86,-9.84,-5.05,-10.89,ccw,10.0,35.0,200.0,1,1,0.8456,0.253
68,3.0,3.0,26.48,36.48,115,0,2.69,1.34,2.41,1.78,ccw,10.0,35.0,200.0,0,1,0.8955,0.452
69,3.0,3.0,76.66,86.66,40,0,0.69,2.92,0.17,2.99,ccw,10.0,35.0,200.0,0,1,0.819,0.278
70,6.0,6.0,39.61,49.61,115,0,4.62,3.82,3.89,4.57,ccw,10.0,35.0,200.0,0,1,0.8555,0.281
71,6.0,6.0,55.32,45.32,0,1,3.41,4.93,4.22,4.27,cw,10.0,35.0,200.0,1,1,0.7665,0.218
72,12.0,12.0,102.72,112.72,140,0,-2.64,11.71,-4.63,11.07,ccw,10.0,35.0,200.0,0,1,0.8499,0.282
73,12.0,12.0,217.03,207.03,0,1,-9.58,-7.23,-10.69,-5.45,cw,10.0,35.0,200.0,1,1,0.8722,0.388
74,12.0,12.0,121.37,131.37,0,1,-6.25,10.25,-7.93,9.01,ccw,10.0,35.0,200.0,1,1,0.8264,0.403
75,3.0,3.0,214.83,224.83,0,1,-2.46,-1.71,-2.13,-2.12,ccw,10.0,35.0,200.0,1,1,0.9212,9.044
76,16.0,16.0,253.89,263.89,140,0,-4.44,-15.37,-1.7,-15.91,ccw,10.0,35.0,200.0,0,1,0.8792,0.353
77,16.0,16.0,228.81,218.81,0,1,-10.54,-12.04,-12.47,-10.03,cw,10.0,35.0,200.0,1,1,0.8879,0.259
78,16.0,16.0,213.34,203.34,115,0,-13.37,-8.79,-14.69,-6.34,cw,10.0,35.0,200.0,0,1,0.7767,0.18
79,20.0,20.0,167.24,177.24,40,0,-19.51,4.42,-19.98,0.96,ccw,10.0,35.0,200.0,0,1,0.9088,0.211
80,20.0,20.0,127.51,117.51,0,1,-12.18,15.86,-9.24,17.74,cw,10.0,35.0,200.0,1,1,1.0071,0.356
81,12.0,12.0,55.34,45.34,115,0,6.82,9.87,8.43,8.54,cw,10.0,35.0,200.0,0,1,0.7881,0.597
82,3.0,3.0,311.32,301.32,115,0,1.98,-2.25,1.56,-2.56,cw,10.0,35.0,200.0,0,1,0.932,0.266
83,20.0,20.0,188.43,198.43,0,1,-19.78,-2.93,-18.97,-6.32,ccw,10.0,35.0,200.0,1,1,1.0295,0.572
84,3.0,3.0,117.25,107.25,0,1,-1.37,2.67,-0.89,2.87,cw,10.0,35.0,200.0,1,1,0.8871,0.461
85,3.0,3.0,115.78,125.78,0,1,-1.3,2.7,-1.75,2.43,ccw,10.0,35.0,200.0,1,1,0.8289,0.668
86,16.0,16.0,24.77,34.77,0,1,14.53,6.7,13.14,9.12,ccw,10.0,35.0,200.0,1,1,0.9933,2.052
87,20.0,20.0,87.61,77.61,115,0,0.84,19.98,4.29,19.53,cw,10.0,10.0,200.0,0,1,1.0439,0.611
88,12.0,12.0,67.01,77.01,40,0,4.69,11.05,2.7,11.69,ccw,10.0,35.0,200.0,0,1,0.9155,0.104
89,3.0,3.0,19.0,9.0,0,1,2.84,0.98,2.96,0.47,cw,10.0,35.0,200.0,1,1,0.8903,0.163
90,16.0,16.0,308.05,298.05,65,0,9.86,-12.6,7.52,-14.12,cw,10.0,35.0,200.0,0,1,0.8878,0.481
91,3.0,3.0,339.9,349.9,0,1,2.82,-1.03,2.95,-0.53,ccw,10.0,35.0,200.0,1,1,0.8471,0.466
92,12.0,12.0,188.04,198.04,0,1,-11.88,-1.68,-11.41,-3.72,ccw,10.0,35.0,200.0,1,1,0.8925,0.411
93,12.0,12.0,304.79,314.79,115,0,6.85,-9.85,8.45,-8.52,ccw,10.0,35.0,200.0,0,1,0.9099,0.363
94,16.0,16.0,217.6,207.6,65,0,-12.68,-9.76,-14.18,-7.41,cw,10.0,35.0,200.0,0,1,0.961,0.539
95,16.0,16.0,106.26,96.26,40,0,-4.48,15.36,-1.74,15.9,cw,10.0,35.0,200.0,0,1,1.0207,0.355
96,16.0,16.0,112.46,122.46,0,1,-6.11,14.79,-8.59,13.5,ccw,10.0,35.0,200.0,1,1,0.9174,0.245
97,12.0,12.0,119.3,109.3,0,1,-5.87,10.46,-3.97,11.33,cw,10.0,35.0,200.0,1,1,0.8815,0.264
98,3.0,3.0,190.17,200.17,65,0,-2.95,-0.53,-2.82,-1.03,ccw,10.0,35.0,200.0,0,1,1.1133,0.247
99,12.0,12.0,12.76,2.76,115,0,11.7,2.65,11.99,0.58,cw,10.0,35.0,200.0,0,1,0.9237,0.523
100,6.0,6.0,264.07,274.07,0,1,-0.62,-5.97,0.43,-5.98,ccw,10.0,35.0,200.0,1,1,0.8273,0.196
