trial,ecc_deg_intended,ecc_deg_actual,angle_start_deg,angle_end_deg,orientation_deg,stim_type,x_start_deg,y_start_deg,x_end_deg,y_end_deg,rot_dir,moved_angle_deg,gabor_px,stim_speed_px_s,response,correct,rt,CalibrationDrift(deg)
1,6.0,6.0,152.35,142.35,0,1,-5.31,2.78,-4.75,3.67,cw,10.0,35.0,400.0,1,1,0.8835,3.127
2,12.0,12.0,317.56,307.56,0,1,8.86,-8.1,7.31,-9.51,cw,10.0,35.0,400.0,1,1,0.8963,0.29
3,6.0,6.0,205.0,215.0,40,0,-5.44,-2.54,-4.91,-3.44,ccw,10.0,35.0,400.0,0,1,0.8886,0.557
4,20.0,20.0,306.16,316.16,0,1,11.8,-16.15,14.43,-13.85,ccw,10.0,35.0,400.0,0,0,1.0161,0.38
5,6.0,6.0,62.54,72.54,0,1,2.77,5.32,1.8,5.72,ccw,10.0,35.0,400.0,1,1,0.8746,0.489
6,6.0,6.0,20.61,30.61,0,1,5.62,2.11,5.16,3.06,ccw,10.0,35.0,400.0,1,1,0.7648,0.538
7,16.0,16.0,23.01,33.01,0,1,14.73,6.25,13.42,8.72,ccw,10.0,35.0,400.0,1,1,0.8125,0.589
8,3.0,3.0,258.11,268.11,65,0,-0.62,-2.94,-0.1,-3.0,ccw,10.0,35.0,400.0,0,1,0.8439,0.668
9,3.0,3.0,200.65,210.65,65,0,-2.81,-1.06,-2.58,-1.53,ccw,10.0,35.0,400.0,0,1,0.9031,0.41
10,16.0,16.0,339.14,349.14,140,0,14.95,-5.7,15.71,-3.02,ccw,10.0,35.0,400.0,0,1,1.0154,0.745
11,3.0,3.0,343.89,333.89,65,0,2.88,-0.83,2.69,-1.32,cw,10.0,35.0,400.0,0,1,0.7807,0.463
12,12.0,12.0,258.18,248.18,40,0,-2.46,-11.75,-4.46,-11.14,cw,10.0,35.0,400.0,0,1,0.7869,0.562
13,12.0,12.0,203.82,213.82,0,1,-10.98,-4.85,-9.97,-6.68,ccw,10.0,35.0,400.0,0,0,0.9311,0.425
14,16.0,16.0,291.65,301.65,0,1,5.9,-14.87,8.4,-13.62,ccw,10.0,35.0,400.0,1,1,1.6396,0.455
15,20.0,20.0,256.17,266.17,140,0,-4.78,-19.42,-1.34,-19.96,ccw,10.0,10.0,400.0,0,1,1.187,0.926
16,12.0,12.0,157.39,147.39,0,1,-11.08,4.61,-10.11,6.47,cw,10.0,35.0,400.0,1,1,0.9114,0.746
17,16.0,16.0,172.67,162.67,115,0,-15.87,2.04,-15.27,4.77,cw,10.0,35.0,400.0,0,1,1.1476,1.584
18,3.0,3.0,195.62,185.62,0,1,-2.89,-0.81,-2.99,-0.29,cw,10.0,35.0,400.0,1,1,0.8648,2.761
19,3.0,3.0,28.47,38.47,115,0,2.64,1.43,2.35,1.87,ccw,10.0,35.0,400.0,0,1,0.8209,1.293
20,12.0,12.0,1.23,351.23,0,1,12.0,0.26,11.86,-1.83,cw,10.0,35.0,400.0,1,1,0.9115,1.19
21,20.0,20.0,72.62,82.62,0,1,5.98,19.09,2.57,19.83,ccw,10.0,10.0,400.0,0,0,1.3541,1.002
22,20.0,20.0,177.85,187.85,0,1,-19.99,0.75,-19.81,-2.73,ccw,10.0,35.0,400.0,1,1,0.9701,1.41
23,12.0,12.0,110.34,100.34,65,0,-4.17,11.25,-2.15,11.8,cw,10.0,35.0,400.0,0,1,1.0314,1.389
24,12.0,12.0,167.14,157.14,0,1,-11.7,2.67,-11.06,4.66,cw,10.0,35.0,400.0,1,1,0.9821,1.1
25,3.0,3.0,271.48,261.48,115,0,0.08,-3.0,-0.44,-2.97,cw,10.0,35.0,400.0,0,1,1.0097,0.522
26,3.0,3.0,57.11,67.11,0,1,1.63,2.52,1.17,2.76,ccw,10.0,35.0,400.0,1,1,0.8787,0.706
27,16.0,16.0,67.4,57.4,40,0,6.15,14.77,8.62,13.48,cw,10.0,35.0,400.0,0,1,1.5631,1.364
28,16.0,16.0,32.47,22.47,115,0,13.5,8.59,14.78,6.12,cw,10.0,35.0,400.0,0,1,1.245,1.183
29,20.0,20.0,357.04,347.04,0,1,19.97,-1.03,19.49,-4.49,cw,10.0,35.0,400.0,0,0,1.3196,1.072
30,20.0,20.0,108.12,118.12,0,1,-6.22,19.01,-9.43,17.64,ccw,10.0,10.0,400.0,0,0,2.0141,0.657
31,12.0,12.0,93.23,103.23,65,0,-0.68,11.98,-2.75,11.68,ccw,10.0,35.0,400.0,0,1,0.9129,0.344
32,16.0,16.0,12.9,2.9,0,1,15.6,3.57,15.98,0.81,cw,10.0,35.0,400.0,1,1,0.795,0.888
33,16.0,16.0,125.9,115.9,0,1,-9.38,12.96,-6.99,14.39,cw,10.0,35.0,400.0,0,0,1.3503,6.043
34,3.0,3.0,7.37,17.37,0,1,2.98,0.38,2.86,0.9,ccw,10.0,35.0,400.0,1,1,0.994,0.879
35,3.0,3.0,176.94,186.94,0,1,-3.0,0.16,-2.98,-0.36,ccw,10.0,35.0,400.0,1,1,1.003,1.352
36,12.0,12.0,118.56,128.56,0,1,-5.74,10.54,-7.48,9.38,ccw,10.0,35.0,400.0,1,1,0.8947,1.457
37,6.0,6.0,1.8,11.8,40,0,6.0,0.19,5.87,1.23,ccw,10.0,35.0,400.0,0,1,0.8675,0.489
38,20.0,20.0,296.81,286.81,0,1,9.02,-17.85,5.78,-19.15,cw,10.0,10.0,400.0,0,0,1.9723,0.52
39,6.0,6.0,61.02,71.02,0,1,2.91,5.25,1.95,5.67,ccw,10.0,35.0,400.0,1,1,0.8845,1.302
40,20.0,20.0,259.14,249.14,0,1,-3.77,-19.64,-7.12,-18.69,cw,10.0,10.0,400.0,0,0,1.3938,1.697
41,3.0,3.0,222.81,232.81,40,0,-2.2,-2.04,-1.81,-2.39,ccw,10.0,35.0,400.0,0,1,1.0114,1.442
42,16.0,16.0,134.59,124.59,115,0,-11.23,11.39,-9.08,13.17,cw,10.0,35.0,400.0,0,1,0.9231,0.682
43,16.0,16.0,225.37,215.37,0,1,-11.24,-11.39,-13.05,-9.26,cw,10.0,35.0,400.0,1,1,0.9918,0.8
44,20.0,20.0,276.77,266.77,0,1,2.36,-19.86,-1.13,-19.97,cw,10.0,10.0,400.0,0,0,1.0415,0.742
45,16.0,16.0,110.54,100.54,0,1,-5.61,14.98,-2.93,15.73,cw,10.0,35.0,400.0,0,0,1.2274,1.297
46,16.0,16.0,99.75,89.75,0,1,-2.71,15.77,0.07,16.0,cw,10.0,35.0,400.0,1,1,1.9514,1.147
47,6.0,6.0,188.3,178.3,115,0,-5.94,-0.87,-6.0,0.18,cw,10.0,35.0,400.0,0,1,0.8356,1.568
48,3.0,3.0,78.06,68.06,40,0,0.62,2.94,1.12,2.78,cw,10.0,35.0,400.0,0,1,1.2829,0.982
49,16.0,16.0,336.02,346.02,0,1,14.62,-6.5,15.53,-3.87,ccw,10.0,35.0,400.0,1,1,1.0785,0.728
50,16.0,16.0,123.89,113.89,0,1,-8.92,13.28,-6.48,14.63,cw,10.0,35.0,400.0,0,0,1.4363,0.618
51,20.0,20.0,349.51,339.51,65,0,19.67,-3.64,18.73,-7.0,cw,10.0,35.0,400.0,0,1,1.0714,0.639
52,20.0,20.0,204.16,194.16,115,0,-18.25,-8.19,-19.39,-4.89,cw,10.0,35.0,400.0,0,1,0.8634,0.887
53,6.0,6.0,358.65,348.65,0,1,6.0,-0.14,5.88,-1.18,cw,10.0,35.0,400.0,1,1,0.9057,3.559
54,16.0,16.0,203.74,193.74,115,0,-14.65,-6.44,-15.54,-3.8,cw,10.0,35.0,400.0,0,1,1.1987,0.558
55,6.0,6.0,226.81,216.81,140,0,-4.11,-4.37,-4.8,-3.6,cw,10.0,35.0,400.0,0,1,0.9053,0.454
56,16.0,16.0,33.2,23.2,0,1,13.39,8.76,14.71,6.3,cw,10.0,35.0,400.0,1,1,1.3011,0.658
57,3.0,3.0,137.78,147.78,0,1,-2.22,2.02,-2.54,1.6,ccw,10.0,35.0,400.0,1,1,0.8763,0.945
58,16.0,16.0,356.28,346.28,40,0,15.97,-1.04,15.54,-3.8,cw,10.0,35.0,400.0,0,1,0.8931,0.869
59,6.0,6.0,4.1,14.1,65,0,5.98,0.43,5.82,1.46,ccw,10.0,35.0,400.0,0,1,0.7988,0.411
60,12.0,12.0,123.95,133.95,140,0,-6.7,9.95,-8.33,8.64,ccw,10.0,35.0,400.0,0,1,0.9444,0.286
61,3.0,3.0,237.92,227.92,0,1,-1.59,-2.54,-2.01,-2.23,cw,10.0,35.0,400.0,1,1,0.8237,1.262
62,12.0,12.0,32.51,22.51,65,0,10.12,6.45,11.09,4.59,cw,10.0,35.0,400.0,0,1,1.033,0.789
63,6.0,6.0,201.89,191.89,0,1,-5.57,-2.24,-5.87,-1.24,cw,10.0,35.0,400.0,1,1,0.826,0.659
64,6.0,6.0,168.32,178.32,0,1,-5.88,1.21,-6.0,0.18,ccw,10.0,35.0,400.0,1,1,0.7316,0.659
65,16.0,16.0,165.52,155.52,65,0,-15.49,4.0,-14.56,6.63,cw,10.0,35.0,400.0,0,1,0.8521,0.551
66,6.0,6.0,63.51,53.51,65,0,2.68,5.37,3.57,4.82,cw,10.0,35.0,400.0,0,1,0.8206,0.939
67,16.0,16.0,253.86,263.86,115,0,-4.45,-15.37,-1.71,-15.91,ccw,10.0,35.0,400.0,0,1,1.2428,0.578
68,16.0,16.0,82.2,72.2,140,0,2.17,15.85,4.89,15.23,cw,10.0,35.0,400.0,0,1,2.3196,0.78
69,16.0,16.0,354.42,344.42,0,1,15.92,-1.56,15.41,-4.3,cw,10.0,35.0,400.0,1,1,0.8627,1.179
70,16.0,16.0,113.64,123.64,0,1,-6.42,14.66,-8.86,13.32,ccw,10.0,35.0,400.0,1,1,2.0646,0.775
71,12.0,12.0,51.28,61.28,140,0,7.51,9.36,5.77,10.52,ccw,10.0,35.0,400.0,0,1,0.8399,7.129
72,20.0,20.0,259.81,269.81,115,0,-3.54,-19.68,-0.07,-20.0,ccw,10.0,10.0,400.0,0,1,0.9586,1.6
73,16.0,16.0,340.81,330.81,0,1,15.11,-5.26,13.97,-7.8,cw,10.0,35.0,400.0,1,1,0.9773,1.304
74,20.0,20.0,12.27,2.27,65,0,19.54,4.25,19.98,0.79,cw,10.0,35.0,400.0,0,1,0.9651,1.444
75,16.0,16.0,29.55,39.55,0,1,13.92,7.89,12.34,10.19,ccw,10.0,35.0,400.0,1,1,2.7181,1.194
76,20.0,20.0,65.58,75.58,140,0,8.27,18.21,4.98,19.37,ccw,10.0,10.0,400.0,0,1,2.4636,0.877
77,6.0,6.0,59.83,69.83,65,0,3.02,5.19,2.07,5.63,ccw,10.0,35.0,400.0,0,1,0.8147,0.738
78,12.0,12.0,296.36,286.36,65,0,5.33,-10.75,3.38,-11.51,cw,10.0,35.0,400.0,0,1,0.773,0.78
79,12.0,12.0,29.04,39.04,65,0,10.49,5.83,9.32,7.56,ccw,10.0,35.0,400.0,0,1,0.8055,0.958
80,16.0,16.0,6.81,356.81,115,0,15.89,1.9,15.98,-0.89,cw,10.0,35.0,400.0,0,1,0.8713,0.88
81,12.0,12.0,193.71,203.71,0,1,-11.66,-2.84,-10.99,-4.83,ccw,10.0,35.0,400.0,0,0,0.9227,1.177
82,6.0,6.0,225.5,215.5,65,0,-4.21,-4.28,-4.88,-3.48,cw,10.0,35.0,400.0,0,1,0.9726,1.189
83,6.0,6.0,325.97,335.97,115,0,4.97,-3.36,5.48,-2.44,ccw,10.0,35.0,400.0,0,1,1.0256,0.982
84,12.0,12.0,240.27,250.27,140,0,-5.95,-10.42,-4.05,-11.3,ccw,10.0,35.0,400.0,0,1,1.1712,1.215
85,3.0,3.0,215.97,225.97,0,1,-2.43,-1.76,-2.09,-2.16,ccw,10.0,35.0,400.0,1,1,1.113,0.864
86,16.0,16.0,359.88,9.88,0,1,16.0,-0.03,15.76,2.75,ccw,10.0,35.0,400.0,1,1,0.954,0.85
87,16.0,16.0,73.98,63.98,115,0,4.41,15.38,7.02,14.38,cw,10.0,35.0,400.0,0,1,0.9704,1.41
88,16.0,16.0,153.81,143.81,0,1,-14.36,7.06,-12.91,9.45,cw,10.0,35.0,400.0,0,0,1.5521,0.487
89,12.0,12.0,284.53,274.53,115,0,3.01,-11.62,0.95,-11.96,cw,10.0,35.0,400.0,0,1,0.973,1.063
90,3.0,3.0,115.39,125.39,40,0,-1.29,2.71,-1.74,2.45,ccw,10.0,35.0,400.0,0,1,0.7286,0.906
91,16.0,16.0,243.85,253.85,40,0,-7.05,-14.36,-4.45,-15.37,ccw,10.0,35.0,400.0,0,1,1.1879,1.285
92,6.0,6.0,62.12,52.12,0,1,2.81,5.3,3.68,4.74,cw,10.0,35.0,400.0,1,1,0.8818,9.425
93,20.0,20.0,56.86,46.86,0,1,10.93,16.75,13.68,14.59,cw,10.0,30.741,400.0,1,1,1.2014,2.08
94,20.0,20.0,101.13,91.13,140,0,-3.86,19.62,-0.4,20.0,cw,10.0,10.0,400.0,0,1,1.0246,2.113
95,16.0,16.0,30.07,20.07,0,1,13.85,8.02,15.03,5.49,cw,10.0,35.0,400.0,1,1,0.8597,1.835
96,6.0,6.0,318.11,328.11,0,1,4.47,-4.01,5.09,-3.17,ccw,10.0,35.0,400.0,1,1,1.0138,2.278
97,12.0,12.0,239.38,229.38,140,0,-6.11,-10.33,-7.81,-9.11,cw,10.0,35.0,400.0,0,1,0.9447,1.539
98,6.0,6.0,356.06,346.06,65,0,5.99,-0.41,5.82,-1.45,cw,10.0,35.0,400.0,0,1,0.9627,1.635
99,20.0,20.0,128.48,138.48,0,1,-12.45,15.66,-14.97,13.26,ccw,10.0,35.0,400.0,1,1,0.8897,1.876
100,16.0,16.0,218.71,208.71,65,0,-12.49,-10.01,-14.03,-7.69,cw,10.0,35.0,400.0,0,1,1.0692,2.354
