trial,ecc_deg_intended,ecc_deg_actual,angle_start_deg,angle_end_deg,orientation_deg,stim_type,x_start_deg,y_start_deg,x_end_deg,y_end_deg,rot_dir,moved_angle_deg,gabor_px,stim_speed_px_s,response,correct,rt,CalibrationDrift(deg)
1,12.0,12.0,74.69,64.69,140,0,3.17,11.57,5.13,10.85,cw,10.0,35.0,100.0,0,1,2.2718,2.165
2,16.0,16.0,299.73,289.73,0,1,7.94,-13.89,5.4,-15.06,cw,10.0,35.0,100.0,1,1,1.0987,2.17
3,3.0,3.0,53.56,63.56,0,1,1.78,2.41,1.34,2.69,ccw,10.0,35.0,100.0,1,1,0.9729,1.05
4,3.0,3.0,121.65,131.65,0,1,-1.57,2.55,-1.99,2.24,ccw,10.0,35.0,100.0,1,1,0.9883,1.533
5,12.0,12.0,296.51,286.51,0,1,5.36,-10.74,3.41,-11.51,cw,10.0,35.0,100.0,1,1,0.9663,0.599
6,12.0,12.0,359.51,349.51,65,0,12.0,-0.1,11.8,-2.19,cw,10.0,35.0,100.0,0,1,0.9844,0.882
7,6.0,6.0,60.9,70.9,0,1,2.92,5.24,1.96,5.67,ccw,10.0,35.0,100.0,1,1,0.9015,0.714
8,3.0,3.0,109.92,99.92,115,0,-1.02,2.82,-0.52,2.96,cw,10.0,35.0,100.0,0,1,0.858,3.07
9,20.0,20.0,314.1,304.1,0,1,13.92,-14.36,11.21,-16.56,cw,10.0,35.0,100.0,0,0,1.4915,3.846
10,3.0,3.0,299.06,289.06,40,0,1.46,-2.62,0.98,-2.84,cw,10.0,35.0,100.0,0,1,0.8752,1.039
11,20.0,20.0,130.3,140.3,40,0,-12.94,15.25,-15.39,12.77,ccw,10.0,35.0,100.0,0,1,0.9007,0.535
12,12.0,12.0,267.79,277.79,0,1,-0.46,-11.99,1.63,-11.89,ccw,10.0,35.0,100.0,1,1,1.0311,4.291
13,3.0,3.0,87.28,97.28,0,1,0.14,3.0,-0.38,2.98,ccw,10.0,35.0,100.0,1,1,0.962,0.755
14,12.0,12.0,282.14,292.14,65,0,2.52,-11.73,4.52,-11.12,ccw,10.0,35.0,100.0,0,1,0.8936,1.67
15,12.0,12.0,272.91,262.91,0,1,0.61,-11.98,-1.48,-11.91,cw,10.0,35.0,100.0,1,1,1.0045,0.653
16,16.0,16.0,205.64,195.64,40,0,-14.42,-6.92,-15.41,-4.31,cw,10.0,35.0,100.0,0,1,0.8552,1.689
17,16.0,16.0,323.98,313.98,40,0,12.94,-9.41,11.11,-11.51,cw,10.0,35.0,100.0,0,1,0.9065,18.346
18,12.0,12.0,184.18,174.18,65,0,-11.97,-0.87,-11.94,1.22,cw,10.0,35.0,100.0,0,1,0.8779,0.804
19,6.0,6.0,26.59,16.59,140,0,5.37,2.69,5.75,1.71,cw,10.0,35.0,100.0,0,1,0.9171,1.372
20,16.0,16.0,64.47,74.47,0,1,6.9,14.44,4.28,15.42,ccw,10.0,35.0,100.0,1,1,0.9822,0.873
21,6.0,6.0,261.15,271.15,140,0,-0.92,-5.93,0.12,-6.0,ccw,10.0,35.0,100.0,0,1,0.8433,1.151
22,12.0,12.0,47.41,37.41,0,1,8.12,8.84,9.53,7.29,cw,10.0,35.0,100.0,1,1,0.9795,0.639
23,12.0,12.0,33.97,43.97,0,1,9.95,6.7,8.64,8.33,ccw,10.0,35.0,100.0,1,1,0.9782,0.619
24,3.0,3.0,159.5,169.5,0,1,-2.81,1.05,-2.95,0.55,ccw,10.0,35.0,100.0,1,1,0.9007,0.361
25,3.0,3.0,290.28,300.28,0,1,1.04,-2.81,1.51,-2.59,ccw,10.0,35.0,100.0,1,1,0.8996,3.081
26,20.0,20.0,184.87,194.87,0,1,-19.93,-1.7,-19.33,-5.13,ccw,10.0,35.0,100.0,1,1,0.9402,0.632
27,20.0,20.0,126.13,116.13,40,0,-11.79,16.15,-8.81,17.96,cw,10.0,35.0,100.0,0,1,1.1377,0.972
28,16.0,16.0,34.66,24.66,115,0,13.16,9.1,14.54,6.68,cw,10.0,35.0,100.0,0,1,0.9012,18.264
29,3.0,3.0,132.96,142.96,0,1,-2.04,2.2,-2.39,1.81,ccw,10.0,35.0,100.0,1,1,0.9976,10.386
30,16.0,16.0,232.11,242.11,65,0,-9.83,-12.63,-7.48,-14.14,ccw,10.0,35.0,100.0,0,1,0.9185,1.349
31,6.0,6.0,311.99,321.99,0,1,4.01,-4.46,4.73,-3.69,ccw,10.0,35.0,100.0,1,1,0.9015,1.046
32,6.0,6.0,329.92,339.92,40,0,5.19,-3.01,5.64,-2.06,ccw,10.0,35.0,100.0,0,1,0.9546,0.877
33,6.0,6.0,69.24,59.24,65,0,2.13,5.61,3.07,5.16,cw,10.0,35.0,100.0,0,1,0.8661,0.326
34,16.0,16.0,235.59,245.59,65,0,-9.04,-13.2,-6.61,-14.57,ccw,10.0,35.0,100.0,0,1,0.9653,1.25
35,20.0,20.0,150.66,160.66,0,1,-17.44,9.8,-18.87,6.62,ccw,10.0,35.0,100.0,1,1,0.9236,0.848
36,12.0,12.0,207.4,217.4,140,0,-10.65,-5.52,-9.53,-7.29,ccw,10.0,35.0,100.0,0,1,0.8844,1.146
37,16.0,16.0,31.18,41.18,0,1,13.69,8.28,12.04,10.54,ccw,10.0,35.0,100.0,1,1,0.8321,7.712
38,12.0,12.0,133.46,123.46,65,0,-8.25,8.71,-6.62,10.01,cw,10.0,35.0,100.0,0,1,0.9604,2.374
39,6.0,6.0,168.04,158.04,0,1,-5.87,1.24,-5.56,2.24,cw,10.0,35.0,100.0,1,1,0.9204,2.158
40,20.0,20.0,247.49,237.49,0,1,-7.66,-18.48,-10.75,-16.87,cw,10.0,10.0,100.0,0,0,1.0991,1.449
41,12.0,12.0,343.6,353.6,0,1,11.51,-3.39,11.93,-1.34,ccw,10.0,35.0,100.0,1,1,0.9021,14.82
42,20.0,20.0,304.81,294.81,40,0,11.42,-16.42,8.39,-18.15,cw,10.0,35.0,100.0,0,1,1.0486,0.474
43,3.0,3.0,103.92,93.92,0,1,-0.72,2.91,-0.21,2.99,cw,10.0,35.0,100.0,1,1,0.9943,8.856
44,20.0,20.0,247.95,237.95,0,1,-7.51,-18.54,-10.61,-16.95,cw,10.0,10.0,100.0,0,0,1.3428,1.327
45,6.0,6.0,170.2,160.2,40,0,-5.91,1.02,-5.65,2.03,cw,10.0,35.0,100.0,0,1,1.0107,3.381
46,16.0,16.0,189.55,199.55,65,0,-15.78,-2.65,-15.08,-5.35,ccw,10.0,35.0,100.0,0,1,0.964,1.506
47,16.0,16.0,16.04,6.04,140,0,15.38,4.42,15.91,1.68,cw,10.0,35.0,100.0,0,1,0.9222,1.288
48,12.0,12.0,128.4,138.4,140,0,-7.45,9.4,-8.97,7.97,ccw,10.0,35.0,100.0,0,1,0.9128,0.391
49,6.0,6.0,231.16,241.16,40,0,-3.76,-4.67,-2.89,-5.26,ccw,10.0,35.0,100.0,0,1,0.8375,1.008
50,6.0,6.0,97.6,107.6,40,0,-0.79,5.95,-1.81,5.72,ccw,10.0,35.0,100.0,0,1,0.7461,1.184
51,3.0,3.0,337.74,327.74,115,0,2.78,-1.14,2.54,-1.6,cw,10.0,35.0,100.0,0,1,0.8248,0.707
52,20.0,20.0,332.53,342.53,0,1,17.75,-9.22,19.08,-6.0,ccw,10.0,35.0,100.0,1,1,1.122,0.547
53,16.0,16.0,232.14,242.14,40,0,-9.82,-12.63,-7.48,-14.15,ccw,10.0,35.0,100.0,0,1,0.8748,0.952
54,16.0,16.0,258.58,248.58,115,0,-3.17,-15.68,-5.84,-14.89,cw,10.0,35.0,100.0,0,1,0.9447,0.692
55,20.0,20.0,72.74,62.74,65,0,5.93,19.1,9.16,17.78,cw,10.0,10.0,100.0,0,1,1.1188,0.758
56,16.0,16.0,264.49,254.49,0,1,-1.54,-15.93,-4.28,-15.42,cw,10.0,35.0,100.0,1,1,2.9258,1.372
57,20.0,20.0,226.52,236.52,65,0,-13.76,-14.51,-11.03,-16.68,ccw,10.0,35.0,100.0,0,1,0.8866,8.026
58,20.0,20.0,101.4,91.4,0,1,-3.95,19.61,-0.49,19.99,cw,10.0,10.0,100.0,0,0,0.9437,1.234
59,3.0,3.0,217.8,207.8,115,0,-2.37,-1.84,-2.65,-1.4,cw,10.0,35.0,100.0,0,1,0.8648,7.378
60,16.0,16.0,212.21,202.21,115,0,-13.54,-8.53,-14.81,-6.05,cw,10.0,35.0,100.0,0,1,0.8837,1.175
61,12.0,12.0,101.84,111.84,0,1,-2.46,11.74,-4.46,11.14,ccw,10.0,35.0,100.0,1,1,1.0355,0.621
62,16.0,16.0,152.6,162.6,0,1,-14.2,7.36,-15.27,4.78,ccw,10.0,35.0,100.0,1,1,0.9705,0.273
63,20.0,20.0,113.43,103.43,0,1,-7.95,18.35,-4.64,19.45,cw,10.0,10.0,100.0,0,0,1.4125,1.957
64,6.0,6.0,337.75,327.75,0,1,5.55,-2.27,5.07,-3.2,cw,10.0,35.0,100.0,1,1,0.9057,1.515
65,3.0,3.0,276.98,266.98,0,1,0.36,-2.98,-0.16,-3.0,cw,10.0,35.0,100.0,1,1,0.8396,0.771
66,20.0,20.0,179.15,189.15,0,1,-20.0,0.3,-19.75,-3.18,ccw,10.0,35.0,100.0,1,1,0.8904,0.807
67,3.0,3.0,210.16,220.16,0,1,-2.59,-1.51,-2.29,-1.93,ccw,10.0,35.0,100.0,1,1,0.8827,5.962
68,12.0,12.0,309.52,319.52,115,0,7.64,-9.26,9.13,-7.79,ccw,10.0,35.0,100.0,0,1,0.8859,0.387
69,6.0,6.0,93.81,103.81,0,1,-0.4,5.99,-1.43,5.83,ccw,10.0,35.0,100.0,1,1,0.8583,0.82
70,12.0,12.0,295.47,305.47,0,1,5.16,-10.83,6.96,-9.77,ccw,10.0,35.0,100.0,1,1,1.0799,1.207
71,3.0,3.0,333.27,323.27,115,0,2.68,-1.35,2.4,-1.79,cw,10.0,35.0,100.0,0,1,0.9779,1.056
72,3.0,3.0,27.07,37.07,0,1,2.67,1.37,2.39,1.81,ccw,10.0,35.0,100.0,1,1,1.0605,0.965
73,6.0,6.0,241.17,231.17,140,0,-2.89,-5.26,-3.76,-4.67,cw,10.0,35.0,100.0,0,1,0.785,1.102
74,16.0,16.0,185.0,175.0,40,0,-15.94,-1.4,-15.94,1.39,cw,10.0,35.0,100.0,0,1,0.8921,1.024
75,20.0,20.0,115.78,125.78,140,0,-8.7,18.01,-11.69,16.22,ccw,10.0,10.0,100.0,0,1,1.0208,0.558
76,20.0,20.0,207.9,197.9,0,1,-17.68,-9.36,-19.03,-6.15,cw,10.0,35.0,100.0,1,1,0.9732,16.312
77,6.0,6.0,68.2,58.2,0,1,2.23,5.57,3.16,5.1,cw,10.0,35.0,100.0,1,1,0.918,1.208
78,3.0,3.0,8.39,358.39,65,0,2.97,0.44,3.0,-0.08,cw,10.0,35.0,100.0,0,1,1.0242,0.907
79,20.0,20.0,184.0,174.0,115,0,-19.95,-1.4,-19.89,2.09,cw,10.0,35.0,100.0,0,1,0.9167,1.395
80,20.0,20.0,192.79,202.79,0,1,-19.5,-4.43,-18.44,-7.75,ccw,10.0,35.0,100.0,1,1,1.0804,0.495
81,20.0,20.0,230.66,220.66,0,1,-12.68,-15.47,-15.17,-13.03,cw,10.0,35.0,100.0,1,1,1.0195,1.24
82,16.0,16.0,43.38,33.38,0,1,11.63,10.99,13.36,8.8,cw,10.0,35.0,100.0,1,1,0.9378,0.486
83,3.0,3.0,263.43,273.43,0,1,-0.34,-2.98,0.18,-2.99,ccw,10.0,35.0,100.0,1,1,0.8404,0.951
84,16.0,16.0,255.28,265.28,115,0,-4.07,-15.47,-1.32,-15.95,ccw,10.0,35.0,100.0,0,1,0.9679,0.619
85,16.0,16.0,335.24,325.24,65,0,14.53,-6.7,13.15,-9.12,cw,10.0,35.0,100.0,0,1,0.8399,0.387
86,12.0,12.0,311.62,321.62,140,0,7.97,-8.97,9.41,-7.45,ccw,10.0,35.0,100.0,0,1,0.8905,1.066
87,12.0,12.0,288.99,298.99,0,1,3.91,-11.35,5.82,-10.5,ccw,10.0,35.0,100.0,1,1,0.99,0.998
88,6.0,6.0,107.97,117.97,40,0,-1.85,5.71,-2.81,5.3,ccw,10.0,35.0,100.0,0,1,1.0073,0.992
89,12.0,12.0,246.53,236.53,115,0,-4.78,-11.01,-6.62,-10.01,cw,10.0,35.0,100.0,0,1,0.7885,0.916
90,16.0,16.0,88.44,98.44,0,1,0.44,15.99,-2.35,15.83,ccw,10.0,35.0,100.0,1,1,0.8333,0.918
91,12.0,12.0,265.03,255.03,40,0,-1.04,-11.95,-3.1,-11.59,cw,10.0,35.0,100.0,0,1,0.9242,0.922
92,3.0,3.0,261.83,271.83,115,0,-0.43,-2.97,0.1,-3.0,ccw,10.0,35.0,100.0,0,1,0.7986,1.262
93,12.0,12.0,267.2,257.2,0,1,-0.59,-11.99,-2.66,-11.7,cw,10.0,35.0,100.0,1,1,1.0267,0.929
94,12.0,12.0,265.83,275.83,0,1,-0.87,-11.97,1.22,-11.94,ccw,10.0,35.0,100.0,1,1,0.8996,1.415
95,20.0,20.0,341.48,351.48,0,1,18.96,-6.35,19.78,-2.96,ccw,10.0,35.0,100.0,0,0,1.1936,0.727
96,16.0,16.0,194.71,184.71,65,0,-15.48,-4.06,-15.95,-1.31,cw,10.0,35.0,100.0,0,1,0.8859,2.164
97,6.0,6.0,121.24,111.24,40,0,-3.11,5.13,-2.17,5.59,cw,10.0,35.0,100.0,0,1,0.7749,0.938
98,16.0,16.0,28.36,18.36,0,1,14.08,7.6,15.19,5.04,cw,10.0,35.0,100.0,1,1,0.9289,0.721
99,3.0,3.0,260.18,250.18,40,0,-0.51,-2.96,-1.02,-2.82,cw,10.0,35.0,100.0,0,1,0.8271,0.42
100,6.0,6.0,266.6,276.6,0,1,-0.36,-5.99,0.69,-5.96,ccw,10.0,35.0,100.0,1,1,0.9339,0.683
