trial,ecc_deg_intended,ecc_deg_actual,angle_start_deg,angle_end_deg,orientation_deg,stim_type,x_start_deg,y_start_deg,x_end_deg,y_end_deg,rot_dir,moved_angle_deg,gabor_px,stim_speed_px_s,response,correct,rt,CalibrationDrift(deg)
1,6.0,6.0,346.96,336.96,65,0,5.85,-1.35,5.52,-2.35,cw,10.0,35.0,200.0,0,1,1.0317,9.074
2,16.0,16.0,10.3,20.3,140,0,15.74,2.86,15.01,5.55,ccw,10.0,35.0,200.0,0,1,0.7369,0.762
3,16.0,16.0,127.51,137.51,0,1,-9.74,12.69,-11.8,10.81,ccw,10.0,35.0,200.0,1,1,0.8531,0.481
4,16.0,16.0,218.16,208.16,0,1,-12.58,-9.89,-14.11,-7.55,cw,10.0,35.0,200.0,1,1,0.7556,0.46
5,6.0,6.0,258.93,248.93,0,1,-1.15,-5.89,-2.16,-5.6,cw,10.0,35.0,200.0,1,1,0.6851,0.113
6,3.0,3.0,337.8,347.8,0,1,2.78,-1.13,2.93,-0.63,ccw,10.0,35.0,200.0,1,1,0.7509,0.24
7,12.0,12.0,303.28,293.28,0,1,6.58,-10.03,4.74,-11.02,cw,10.0,35.0,200.0,1,1,0.7916,0.408
8,12.0,12.0,216.08,226.08,115,0,-9.7,-7.07,-8.32,-8.64,ccw,10.0,35.0,200.0,0,1,0.7213,0.432
9,12.0,12.0,325.15,335.15,0,1,9.85,-6.86,10.89,-5.04,ccw,10.0,35.0,200.0,1,1,0.7555,0.273
10,20.0,20.0,211.75,221.75,0,1,-17.01,-10.53,-14.92,-13.32,ccw,10.0,35.0,200.0,1,1,0.7409,0.238
11,16.0,16.0,253.73,243.73,0,1,-4.48,-15.36,-7.08,-14.35,cw,10.0,35.0,200.0,1,1,0.6665,0.207
12,20.0,20.0,175.84,185.84,0,1,-19.95,1.45,-19.9,-2.03,ccw,10.0,35.0,200.0,1,1,0.7249,0.361
13,12.0,12.0,149.68,159.68,140,0,-10.36,6.06,-11.25,4.17,ccw,10.0,35.0,200.0,0,1,0.7188,0.307
14,16.0,16.0,129.77,139.77,140,0,-10.23,12.3,-12.21,10.33,ccw,10.0,35.0,200.0,0,1,0.6852,0.304
15,16.0,16.0,292.98,282.98,140,0,6.25,-14.73,3.59,-15.59,cw,10.0,35.0,200.0,0,1,0.7971,0.308
16,6.0,6.0,284.13,274.13,0,1,1.46,-5.82,0.43,-5.98,cw,10.0,35.0,200.0,1,1,0.6858,0.402
17,3.0,3.0,262.36,252.36,40,0,-0.4,-2.97,-0.91,-2.86,cw,10.0,35.0,200.0,0,1,0.7183,0.46
18,12.0,12.0,112.87,122.87,0,1,-4.66,11.06,-6.51,10.08,ccw,10.0,35.0,200.0,1,1,0.7404,0.381
19,16.0,16.0,27.62,17.62,0,1,14.18,7.42,15.25,4.84,cw,10.0,35.0,200.0,1,1,0.7279,0.18
20,12.0,12.0,209.58,219.58,115,0,-10.44,-5.92,-9.25,-7.65,ccw,10.0,35.0,200.0,0,1,0.6467,0.147
21,20.0,20.0,11.83,21.83,0,1,19.58,4.1,18.57,7.44,ccw,10.0,35.0,200.0,1,1,0.7343,0.273
22,12.0,12.0,90.77,80.77,0,1,-0.16,12.0,1.92,11.84,cw,10.0,35.0,200.0,1,1,0.6396,0.245
23,3.0,3.0,200.56,210.56,40,0,-2.81,-1.05,-2.58,-1.53,ccw,10.0,35.0,200.0,0,1,0.6805,0.146
24,20.0,20.0,150.66,140.66,65,0,-17.43,9.8,-15.47,12.68,cw,10.0,35.0,200.0,0,1,0.7469,0.129
25,16.0,16.0,266.82,256.82,0,1,-0.89,-15.98,-3.65,-15.58,cw,10.0,35.0,200.0,1,1,0.8637,0.143
26,12.0,12.0,318.4,308.4,115,0,8.97,-7.97,7.45,-9.4,cw,10.0,35.0,200.0,0,1,0.7489,0.327
27,3.0,3.0,123.62,133.62,40,0,-1.66,2.5,-2.07,2.17,ccw,10.0,35.0,200.0,0,1,0.755,0.243
28,12.0,12.0,208.46,198.46,0,1,-10.55,-5.72,-11.38,-3.8,cw,10.0,35.0,200.0,1,1,0.7665,0.401
29,12.0,12.0,196.69,186.69,0,1,-11.49,-3.45,-11.92,-1.4,cw,10.0,35.0,200.0,1,1,0.7512,0.359
30,12.0,12.0,355.41,345.41,0,1,11.96,-0.96,11.61,-3.02,cw,10.0,35.0,200.0,1,1,0.8311,0.295
31,6.0,6.0,203.32,213.32,0,1,-5.51,-2.38,-5.01,-3.3,ccw,10.0,35.0,200.0,1,1,0.7145,0.213
32,16.0,16.0,29.41,19.41,65,0,13.94,7.86,15.09,5.32,cw,10.0,35.0,200.0,0,1,0.7702,0.208
33,20.0,20.0,178.73,168.73,0,1,-20.0,0.44,-19.61,3.91,cw,10.0,35.0,200.0,1,1,0.7198,0.123
34,3.0,3.0,107.14,117.14,0,1,-0.88,2.87,-1.37,2.67,ccw,10.0,35.0,200.0,1,1,0.7319,0.137
35,3.0,3.0,261.49,271.49,65,0,-0.44,-2.97,0.08,-3.0,ccw,10.0,35.0,200.0,0,1,0.7474,0.156
36,6.0,6.0,182.24,192.24,0,1,-6.0,-0.23,-5.86,-1.27,ccw,10.0,35.0,200.0,1,1,0.6872,0.619
37,20.0,20.0,329.55,339.55,115,0,17.24,-10.14,18.74,-6.99,ccw,10.0,35.0,200.0,0,1,0.6729,0.102
38,12.0,12.0,108.55,98.55,40,0,-3.82,11.38,-1.78,11.87,cw,10.0,35.0,200.0,0,1,1.2888,0.187
39,12.0,12.0,136.82,146.82,65,0,-8.75,8.21,-10.04,6.57,ccw,10.0,35.0,200.0,0,1,0.7344,0.381
40,3.0,3.0,2.07,352.07,140,0,3.0,0.11,2.97,-0.41,cw,10.0,35.0,200.0,0,1,0.9605,0.444
41,6.0,6.0,220.96,210.96,115,0,-4.53,-3.93,-5.14,-3.09,cw,10.0,35.0,200.0,0,1,0.774,0.29
42,16.0,16.0,263.19,253.19,140,0,-1.9,-15.89,-4.63,-15.32,cw,10.0,35.0,200.0,0,1,0.7694,0.32
43,3.0,3.0,284.21,274.21,40,0,0.74,-2.91,0.22,-2.99,cw,10.0,35.0,200.0,0,1,0.788,0.391
44,12.0,12.0,214.88,204.88,115,0,-9.84,-6.86,-10.89,-5.05,cw,10.0,35.0,200.0,0,1,0.6472,0.248
45,12.0,12.0,62.91,72.91,140,0,5.46,10.68,3.53,11.47,ccw,10.0,35.0,200.0,0,1,0.6752,0.489
46,16.0,16.0,320.33,310.33,115,0,12.32,-10.21,10.36,-12.2,cw,10.0,35.0,200.0,0,1,0.7494,0.16
47,16.0,16.0,231.44,241.44,0,1,-9.97,-12.51,-7.65,-14.05,ccw,10.0,35.0,200.0,1,1,1.2152,0.245
48,20.0,20.0,237.01,227.01,0,1,-10.89,-16.77,-13.64,-14.63,cw,10.0,28.35,200.0,1,1,0.9615,10.67
49,3.0,3.0,304.58,294.58,0,1,1.7,-2.47,1.25,-2.73,cw,10.0,35.0,200.0,1,1,0.767,0.718
50,16.0,16.0,60.33,50.33,0,1,7.92,13.9,10.21,12.32,cw,10.0,35.0,200.0,1,1,0.7468,0.234
51,20.0,20.0,255.78,245.78,40,0,-4.91,-19.39,-8.2,-18.24,cw,10.0,10.0,200.0,0,1,1.1209,0.547
52,20.0,20.0,115.02,105.02,0,1,-8.46,18.12,-5.18,19.32,cw,10.0,10.0,200.0,0,0,0.8521,9.323
53,20.0,20.0,111.19,101.19,0,1,-7.23,18.65,-3.88,19.62,cw,10.0,10.0,200.0,0,0,0.8382,0.262
54,12.0,12.0,303.4,313.4,0,1,6.61,-10.02,8.25,-8.72,ccw,10.0,35.0,200.0,1,1,0.9249,0.41
55,6.0,6.0,292.01,302.01,115,0,2.25,-5.56,3.18,-5.09,ccw,10.0,35.0,200.0,0,1,0.7935,0.456
56,12.0,12.0,24.01,14.01,0,1,10.96,4.88,11.64,2.9,cw,10.0,35.0,200.0,1,1,0.784,0.125
57,16.0,16.0,0.51,10.51,40,0,16.0,0.14,15.73,2.92,ccw,10.0,35.0,200.0,0,1,0.7234,0.317
58,12.0,12.0,241.99,251.99,140,0,-5.64,-10.59,-3.71,-11.41,ccw,10.0,35.0,200.0,0,1,0.8543,0.33
59,3.0,3.0,85.28,95.28,0,1,0.25,2.99,-0.28,2.99,ccw,10.0,35.0,200.0,1,1,0.7559,0.236
60,16.0,16.0,335.95,325.95,115,0,14.61,-6.52,13.26,-8.96,cw,10.0,35.0,200.0,0,1,0.8487,1.404
61,6.0,6.0,140.59,130.59,140,0,-4.64,3.81,-3.9,4.56,cw,10.0,35.0,200.0,0,1,0.7925,0.658
62,16.0,16.0,63.25,73.25,140,0,7.2,14.29,4.61,15.32,ccw,10.0,35.0,200.0,0,1,0.7148,4.659
63,6.0,6.0,197.31,187.31,40,0,-5.73,-1.78,-5.95,-0.76,cw,10.0,35.0,200.0,0,1,0.7637,4.734
64,3.0,3.0,221.95,211.95,65,0,-2.23,-2.01,-2.55,-1.59,cw,10.0,35.0,200.0,0,1,0.7133,3.334
65,12.0,12.0,337.43,347.43,0,1,11.08,-4.61,11.71,-2.61,ccw,10.0,35.0,200.0,0,0,0.7504,2.686
66,20.0,20.0,276.85,286.85,40,0,2.39,-19.86,5.8,-19.14,ccw,10.0,10.0,200.0,0,1,0.9424,2.977
67,6.0,6.0,127.39,117.39,0,1,-3.64,4.77,-2.76,5.33,cw,10.0,35.0,200.0,1,1,0.6982,5.264
68,6.0,6.0,318.03,308.03,0,1,4.46,-4.01,3.7,-4.73,cw,10.0,35.0,200.0,1,1,0.8231,1.324
69,6.0,6.0,327.23,317.23,140,0,5.05,-3.25,4.4,-4.07,cw,10.0,35.0,200.0,0,1,0.7469,1.971
70,3.0,3.0,53.38,63.38,0,1,1.79,2.41,1.34,2.68,ccw,10.0,35.0,200.0,1,1,0.7895,0.759
71,3.0,3.0,27.27,37.27,0,1,2.67,1.37,2.39,1.82,ccw,10.0,35.0,200.0,1,1,0.7273,2.015
72,3.0,3.0,149.34,139.34,0,1,-2.58,1.53,-2.28,1.95,cw,10.0,35.0,200.0,1,1,0.9209,1.97
73,16.0,16.0,14.26,4.26,115,0,15.51,3.94,15.96,1.19,cw,10.0,35.0,200.0,0,1,0.7384,2.275
74,16.0,16.0,343.65,333.65,0,1,15.35,-4.5,14.34,-7.1,cw,10.0,35.0,200.0,1,1,0.7965,2.199
75,6.0,6.0,26.45,16.45,0,1,5.37,2.67,5.75,1.7,cw,10.0,35.0,200.0,1,1,0.7512,1.293
76,6.0,6.0,312.49,302.49,0,1,4.05,-4.42,3.22,-5.06,cw,10.0,35.0,200.0,1,1,0.7251,1.092
77,12.0,12.0,167.12,177.12,40,0,-11.7,2.68,-11.98,0.6,ccw,10.0,35.0,200.0,0,1,0.8236,0.946
78,20.0,20.0,103.96,93.96,65,0,-4.82,19.41,-1.38,19.95,cw,10.0,10.0,200.0,0,1,0.8146,0.238
79,16.0,16.0,192.02,202.02,0,1,-15.65,-3.33,-14.83,-6.0,ccw,10.0,35.0,200.0,1,1,0.771,0.158
80,3.0,3.0,24.04,14.04,40,0,2.74,1.22,2.91,0.73,cw,10.0,35.0,200.0,0,1,0.8507,0.676
81,3.0,3.0,339.99,349.99,140,0,2.82,-1.03,2.95,-0.52,ccw,10.0,35.0,200.0,0,1,0.9861,1.207
82,16.0,16.0,338.67,328.67,115,0,14.9,-5.82,13.67,-8.32,cw,10.0,35.0,200.0,0,1,0.7299,0.199
83,12.0,12.0,68.4,78.4,0,1,4.42,11.16,2.41,11.75,ccw,10.0,35.0,200.0,1,1,0.8326,1.288
84,12.0,12.0,359.74,9.74,65,0,12.0,-0.05,11.83,2.03,ccw,10.0,35.0,200.0,0,1,0.8249,0.404
85,6.0,6.0,345.46,335.46,65,0,5.81,-1.51,5.46,-2.49,cw,10.0,35.0,200.0,0,1,0.7634,0.441
86,12.0,12.0,315.04,305.04,115,0,8.49,-8.48,6.89,-9.82,cw,10.0,35.0,200.0,0,1,0.7775,0.464
87,16.0,16.0,295.4,305.4,0,1,6.86,-14.45,9.27,-13.04,ccw,10.0,35.0,200.0,1,1,0.8482,0.52
88,20.0,20.0,336.94,326.94,65,0,18.4,-7.83,16.76,-10.91,cw,10.0,35.0,200.0,0,1,0.7539,0.173
89,16.0,16.0,128.33,118.33,40,0,-9.92,12.55,-7.59,14.08,cw,10.0,35.0,200.0,0,1,0.8011,0.43
90,20.0,20.0,332.26,342.26,0,1,17.7,-9.31,19.05,-6.1,ccw,10.0,35.0,200.0,1,1,0.8013,0.143
91,20.0,20.0,96.6,86.6,0,1,-2.3,19.87,1.18,19.96,cw,10.0,10.0,200.0,0,0,0.8878,0.637
92,16.0,16.0,319.4,329.4,140,0,12.15,-10.41,13.77,-8.14,ccw,10.0,35.0,200.0,0,1,0.8239,0.394
93,12.0,12.0,189.57,179.57,0,1,-11.83,-1.99,-12.0,0.09,cw,10.0,35.0,200.0,1,1,0.7805,0.275
94,16.0,16.0,282.84,272.84,0,1,3.55,-15.6,0.79,-15.98,cw,10.0,35.0,200.0,1,1,0.7078,0.32
95,20.0,20.0,45.6,55.6,140,0,13.99,14.29,11.3,16.5,ccw,10.0,35.0,200.0,0,1,0.8256,0.265
96,3.0,3.0,307.81,317.81,0,1,1.84,-2.37,2.22,-2.01,ccw,10.0,35.0,200.0,1,1,0.6652,0.224
97,12.0,12.0,101.76,91.76,65,0,-2.44,11.75,-0.37,11.99,cw,10.0,35.0,200.0,0,1,0.7013,0.265
98,12.0,12.0,7.71,17.71,0,1,11.89,1.61,11.43,3.65,ccw,10.0,35.0,200.0,1,1,0.7089,0.227
99,20.0,20.0,177.92,167.92,65,0,-19.99,0.73,-19.56,4.19,cw,10.0,35.0,200.0,0,1,0.6672,0.349
100,6.0,6.0,121.27,131.27,0,1,-3.11,5.13,-3.96,4.51,ccw,10.0,35.0,200.0,1,1,0.6878,0.179
