trial,ecc_deg_intended,ecc_deg_actual,angle_start_deg,angle_end_deg,orientation_deg,stim_type,x_start_deg,y_start_deg,x_end_deg,y_end_deg,rot_dir,moved_angle_deg,gabor_px,stim_speed_px_s,response,correct,rt,CalibrationDrift(deg)
1,12.0,12.0,181.14,171.14,0,1,-12.0,-0.24,-11.86,1.85,cw,10.0,35.0,0.0,1,1,0.9018,0.546
2,16.0,16.0,42.05,52.05,140,0,11.88,10.72,9.84,12.62,ccw,10.0,35.0,0.0,0,1,0.8811,1.151
3,20.0,20.0,206.62,196.62,65,0,-17.88,-8.96,-19.16,-5.72,cw,10.0,35.0,0.0,0,1,0.8619,0.847
4,16.0,16.0,266.98,276.98,40,0,-0.84,-15.98,1.94,-15.88,ccw,10.0,35.0,0.0,0,1,0.9575,0.748
5,3.0,3.0,332.64,342.64,0,1,2.66,-1.38,2.86,-0.9,ccw,10.0,35.0,0.0,1,1,0.7405,0.643
6,6.0,6.0,357.52,347.52,140,0,5.99,-0.26,5.86,-1.3,cw,10.0,35.0,0.0,0,1,0.878,1.462
7,16.0,16.0,191.97,201.97,0,1,-15.65,-3.32,-14.84,-5.99,ccw,10.0,35.0,0.0,0,0,0.9692,1.289
8,3.0,3.0,91.98,81.98,0,1,-0.1,3.0,0.42,2.97,cw,10.0,35.0,0.0,1,1,0.9355,0.855
9,16.0,16.0,287.04,297.04,65,0,4.69,-15.3,7.27,-14.25,ccw,10.0,35.0,0.0,0,1,1.3466,1.342
10,16.0,16.0,211.8,221.8,140,0,-13.6,-8.43,-11.93,-10.66,ccw,10.0,35.0,0.0,0,1,0.8578,1.004
11,12.0,12.0,287.27,277.27,65,0,3.56,-11.46,1.52,-11.9,cw,10.0,35.0,0.0,0,1,1.011,1.325
12,3.0,3.0,248.85,238.85,140,0,-1.08,-2.8,-1.55,-2.57,cw,10.0,35.0,0.0,0,1,0.8219,1.133
13,20.0,20.0,48.49,38.49,140,0,13.25,14.98,15.65,12.45,cw,10.0,35.0,0.0,0,1,0.9698,1.259
14,20.0,20.0,279.33,269.33,40,0,3.24,-19.74,-0.23,-20.0,cw,10.0,10.0,0.0,0,1,0.8858,1.014
15,3.0,3.0,259.27,269.27,0,1,-0.56,-2.95,-0.04,-3.0,ccw,10.0,35.0,0.0,1,1,1.069,0.838
16,3.0,3.0,315.33,305.33,65,0,2.13,-2.11,1.73,-2.45,cw,10.0,35.0,0.0,0,1,0.8562,1.039
17,16.0,16.0,215.92,225.92,115,0,-12.96,-9.39,-11.13,-11.49,ccw,10.0,35.0,0.0,1,0,1.2197,0.991
18,20.0,20.0,144.86,134.86,0,1,-16.36,11.51,-14.11,14.18,cw,10.0,35.0,0.0,0,0,0.9326,1.29
19,6.0,6.0,97.93,87.93,65,0,-0.83,5.94,0.22,6.0,cw,10.0,35.0,0.0,0,1,0.8591,1.283
20,16.0,16.0,128.03,138.03,40,0,-9.86,12.6,-11.9,10.7,ccw,10.0,35.0,0.0,0,1,0.9041,1.372
21,12.0,12.0,239.84,229.84,115,0,-6.03,-10.38,-7.74,-9.17,cw,10.0,35.0,0.0,0,1,0.8906,1.306
22,6.0,6.0,274.61,284.61,140,0,0.48,-5.98,1.51,-5.81,ccw,10.0,35.0,0.0,0,1,0.8042,1.178
23,16.0,16.0,230.9,220.9,0,1,-10.09,-12.42,-12.09,-10.48,cw,10.0,35.0,0.0,0,0,0.9285,1.154
24,3.0,3.0,344.52,354.52,0,1,2.89,-0.8,2.99,-0.29,ccw,10.0,35.0,0.0,1,1,0.9074,1.139
25,16.0,16.0,191.33,201.33,65,0,-15.69,-3.14,-14.9,-5.82,ccw,10.0,35.0,0.0,0,1,0.9493,0.822
26,6.0,6.0,66.79,56.79,0,1,2.36,5.51,3.29,5.02,cw,10.0,35.0,0.0,1,1,0.8067,0.446
27,12.0,12.0,229.49,219.49,0,1,-7.79,-9.12,-9.26,-7.63,cw,10.0,35.0,0.0,1,1,0.9036,1.002
28,12.0,12.0,99.18,89.18,0,1,-1.92,11.85,0.17,12.0,cw,10.0,35.0,0.0,1,1,1.1024,0.67
29,20.0,20.0,160.97,170.97,65,0,-18.91,6.52,-19.75,3.14,ccw,10.0,35.0,0.0,0,1,1.002,1.552
30,12.0,12.0,10.04,0.04,40,0,11.82,2.09,12.0,0.01,cw,10.0,35.0,0.0,0,1,0.9155,1.378
31,6.0,6.0,70.9,80.9,0,1,1.96,5.67,0.95,5.92,ccw,10.0,35.0,0.0,1,1,0.95,1.463
32,20.0,20.0,206.73,216.73,0,1,-17.86,-9.0,-16.03,-11.96,ccw,10.0,35.0,0.0,1,1,1.0112,1.45
33,6.0,6.0,74.8,64.8,0,1,1.57,5.79,2.55,5.43,cw,10.0,35.0,0.0,1,1,0.865,1.257
34,6.0,6.0,295.77,305.77,0,1,2.61,-5.4,3.51,-4.87,ccw,10.0,35.0,0.0,1,1,0.9007,1.445
35,12.0,12.0,169.36,179.36,0,1,-11.79,2.22,-12.0,0.13,ccw,10.0,35.0,0.0,1,1,0.8385,1.378
36,20.0,20.0,338.3,328.3,65,0,18.58,-7.39,17.02,-10.51,cw,10.0,35.0,0.0,0,1,0.982,1.336
37,3.0,3.0,66.15,56.15,0,1,1.21,2.74,1.67,2.49,cw,10.0,35.0,0.0,1,1,0.8806,1.324
38,3.0,3.0,18.26,8.26,0,1,2.85,0.94,2.97,0.43,cw,10.0,35.0,0.0,1,1,0.8789,1.067
39,12.0,12.0,196.83,206.83,0,1,-11.49,-3.47,-10.71,-5.42,ccw,10.0,35.0,0.0,1,1,1.0188,0.852
40,6.0,6.0,208.87,198.87,65,0,-5.25,-2.9,-5.68,-1.94,cw,10.0,35.0,0.0,0,1,0.9228,0.542
41,16.0,16.0,329.87,319.87,0,1,13.84,-8.03,12.23,-10.31,cw,10.0,35.0,0.0,1,1,0.98,0.509
42,16.0,16.0,223.5,213.5,115,0,-11.61,-11.01,-13.34,-8.83,cw,10.0,35.0,0.0,0,1,0.9389,1.612
43,16.0,16.0,169.09,159.09,115,0,-15.71,3.03,-14.95,5.71,cw,10.0,35.0,0.0,0,1,0.8676,1.5
44,16.0,16.0,68.39,78.39,140,0,5.89,14.88,3.22,15.67,ccw,10.0,35.0,0.0,0,1,0.97,1.304
45,6.0,6.0,191.14,181.14,0,1,-5.89,-1.16,-6.0,-0.12,cw,10.0,35.0,0.0,1,1,0.8476,1.633
46,12.0,12.0,328.22,338.22,0,1,10.2,-6.32,11.14,-4.45,ccw,10.0,35.0,0.0,1,1,0.8995,1.85
47,16.0,16.0,119.55,129.55,0,1,-7.89,13.92,-10.19,12.34,ccw,10.0,35.0,0.0,1,1,1.0041,1.527
48,20.0,20.0,305.29,315.29,0,1,11.56,-16.32,14.21,-14.07,ccw,10.0,35.0,0.0,0,0,1.7645,1.873
49,16.0,16.0,218.29,208.29,0,1,-12.56,-9.92,-14.09,-7.58,cw,10.0,35.0,0.0,1,1,0.8788,1.287
50,16.0,16.0,143.91,153.91,0,1,-12.93,9.43,-14.37,7.04,ccw,10.0,35.0,0.0,1,1,0.8999,1.726
51,6.0,6.0,340.04,330.04,115,0,5.64,-2.05,5.2,-3.0,cw,10.0,35.0,0.0,0,1,0.8142,1.925
52,6.0,6.0,71.21,61.21,0,1,1.93,5.68,2.89,5.26,cw,10.0,35.0,0.0,1,1,0.9331,1.591
53,20.0,20.0,12.09,2.09,115,0,19.56,4.19,19.99,0.73,cw,10.0,35.0,0.0,0,1,1.0306,1.393
54,6.0,6.0,168.92,158.92,0,1,-5.89,1.15,-5.6,2.16,cw,10.0,35.0,0.0,1,1,0.8921,1.41
55,3.0,3.0,12.2,2.2,115,0,2.93,0.63,3.0,0.12,cw,10.0,35.0,0.0,0,1,0.9585,1.231
56,3.0,3.0,323.38,313.38,115,0,2.41,-1.79,2.06,-2.18,cw,10.0,35.0,0.0,0,1,0.9207,0.918
57,20.0,20.0,116.45,126.45,140,0,-8.91,17.91,-11.88,16.09,ccw,10.0,10.0,0.0,0,1,0.9199,1.287
58,20.0,20.0,175.79,185.79,0,1,-19.95,1.47,-19.9,-2.02,ccw,10.0,35.0,0.0,1,1,1.0199,1.486
59,12.0,12.0,35.33,45.33,140,0,9.79,6.94,8.44,8.53,ccw,10.0,35.0,0.0,0,1,1.32,1.539
60,3.0,3.0,309.44,319.44,65,0,1.91,-2.32,2.28,-1.95,ccw,10.0,35.0,0.0,0,1,0.9451,1.121
61,12.0,12.0,225.87,235.87,140,0,-8.36,-8.61,-6.73,-9.93,ccw,10.0,35.0,0.0,0,1,0.9645,1.466
62,3.0,3.0,306.44,316.44,0,1,1.78,-2.41,2.17,-2.07,ccw,10.0,35.0,0.0,1,1,1.1203,1.023
63,12.0,12.0,268.17,258.17,0,1,-0.38,-11.99,-2.46,-11.75,cw,10.0,35.0,0.0,1,1,0.9261,0.525
64,16.0,16.0,78.76,88.76,65,0,3.12,15.69,0.35,16.0,ccw,10.0,35.0,0.0,0,1,2.0576,1.1
65,3.0,3.0,343.83,333.83,0,1,2.88,-0.84,2.69,-1.32,cw,10.0,35.0,0.0,1,1,1.0893,0.309
66,12.0,12.0,265.44,275.44,115,0,-0.95,-11.96,1.14,-11.95,ccw,10.0,35.0,0.0,0,1,0.909,0.455
67,3.0,3.0,105.75,95.75,0,1,-0.81,2.89,-0.3,2.98,cw,10.0,35.0,0.0,1,1,0.8647,1.121
68,6.0,6.0,204.49,214.49,0,1,-5.46,-2.49,-4.95,-3.4,ccw,10.0,35.0,0.0,1,1,0.9457,0.711
69,12.0,12.0,33.05,43.05,140,0,10.06,6.55,8.77,8.19,ccw,10.0,35.0,0.0,0,1,1.1551,0.844
70,20.0,20.0,118.88,128.88,0,1,-9.66,17.51,-12.55,15.57,ccw,10.0,10.0,0.0,0,0,1.1098,0.911
71,16.0,16.0,20.67,30.67,140,0,14.97,5.65,13.76,8.16,ccw,10.0,35.0,0.0,0,1,1.1927,0.775
72,3.0,3.0,358.77,8.77,0,1,3.0,-0.06,2.96,0.46,ccw,10.0,35.0,0.0,1,1,1.026,0.595
73,3.0,3.0,55.75,65.75,40,0,1.69,2.48,1.23,2.74,ccw,10.0,35.0,0.0,0,1,1.3833,0.634
74,20.0,20.0,129.11,139.11,115,0,-12.62,15.52,-15.12,13.09,ccw,10.0,35.0,0.0,0,1,0.9821,1.412
75,3.0,3.0,137.49,147.49,0,1,-2.21,2.03,-2.53,1.61,ccw,10.0,35.0,0.0,1,1,0.8761,1.254
76,16.0,16.0,246.86,256.86,0,1,-6.29,-14.71,-3.64,-15.58,ccw,10.0,35.0,0.0,1,1,2.0142,1.332
77,12.0,12.0,216.48,206.48,0,1,-9.65,-7.13,-10.74,-5.35,cw,10.0,35.0,0.0,1,1,0.9603,0.559
78,20.0,20.0,144.7,134.7,0,1,-16.32,11.56,-14.07,14.22,cw,10.0,35.0,0.0,1,1,1.0898,0.712
79,16.0,16.0,168.05,158.05,0,1,-15.65,3.31,-14.84,5.98,cw,10.0,35.0,0.0,1,1,1.4963,0.64
80,16.0,16.0,304.62,294.62,40,0,9.09,-13.17,6.67,-14.54,cw,10.0,35.0,0.0,0,1,1.7016,0.709
81,12.0,12.0,260.48,270.48,40,0,-1.98,-11.83,0.1,-12.0,ccw,10.0,35.0,0.0,0,1,0.9212,0.878
82,12.0,12.0,266.69,256.69,140,0,-0.69,-11.98,-2.76,-11.68,cw,10.0,35.0,0.0,0,1,0.8062,2.619
83,3.0,3.0,14.75,4.75,0,1,2.9,0.76,2.99,0.25,cw,10.0,35.0,0.0,1,1,0.9601,1.633
84,16.0,16.0,319.46,329.46,140,0,12.16,-10.4,13.78,-8.13,ccw,10.0,35.0,0.0,0,1,0.8505,1.26
85,6.0,6.0,243.59,233.59,40,0,-2.67,-5.37,-3.56,-4.83,cw,10.0,35.0,0.0,1,0,0.9299,1.111
86,12.0,12.0,3.91,353.91,0,1,11.97,0.82,11.93,-1.27,cw,10.0,35.0,0.0,1,1,1.0016,1.287
87,6.0,6.0,260.85,270.85,0,1,-0.95,-5.92,0.09,-6.0,ccw,10.0,35.0,0.0,1,1,0.9488,1.123
88,3.0,3.0,264.18,254.18,115,0,-0.3,-2.98,-0.82,-2.89,cw,10.0,35.0,0.0,0,1,0.7725,1.038
89,6.0,6.0,135.45,125.45,115,0,-4.28,4.21,-3.48,4.89,cw,10.0,35.0,0.0,0,1,0.8709,1.347
90,12.0,12.0,117.5,107.5,0,1,-5.54,10.64,-3.61,11.44,cw,10.0,35.0,0.0,1,1,0.9869,1.399
91,16.0,16.0,287.43,297.43,0,1,4.79,-15.27,7.37,-14.2,ccw,10.0,35.0,0.0,0,0,2.0742,1.131
92,6.0,6.0,218.84,208.84,0,1,-4.67,-3.76,-5.26,-2.89,cw,10.0,35.0,0.0,1,1,0.8568,0.327
93,20.0,20.0,350.47,340.47,0,1,19.72,-3.31,18.85,-6.68,cw,10.0,35.0,0.0,1,1,1.6997,0.621
94,20.0,20.0,264.09,274.09,65,0,-2.06,-19.89,1.43,-19.95,ccw,10.0,10.0,0.0,0,1,1.0416,0.725
95,3.0,3.0,226.53,236.53,0,1,-2.06,-2.18,-1.65,-2.5,ccw,10.0,35.0,0.0,1,1,0.9197,1.556
96,3.0,3.0,195.3,185.3,140,0,-2.89,-0.79,-2.99,-0.28,cw,10.0,35.0,0.0,0,1,0.8352,1.197
97,6.0,6.0,25.49,15.49,0,1,5.42,2.58,5.78,1.6,cw,10.0,35.0,0.0,1,1,1.4912,1.802
98,3.0,3.0,65.8,55.8,40,0,1.23,2.74,1.69,2.48,cw,10.0,35.0,0.0,0,1,1.7739,1.25
99,12.0,12.0,242.93,232.93,65,0,-5.46,-10.69,-7.23,-9.58,cw,10.0,35.0,0.0,0,1,0.8513,0.727
100,3.0,3.0,28.59,38.59,65,0,2.63,1.44,2.35,1.87,ccw,10.0,35.0,0.0,0,1,0.7413,1.417
